012_PP_FCR_1
Integration time [ms]: 100,000
Averaging Nr. [scans]: 1
Smoothing Nr. [pixels]: 0
Data measured with spectrometer [name]: 1204091U1
Wave   ;Sample   ;Dark     ;Reference;Reflectance
[nm]   ;[counts] ;[counts] ;[counts] ;[%]

1014,48; 8129,000; 2453,000; 7571,000;110,90270
1019,01; 8599,000; 2571,000; 8072,000;109,58008
1023,54; 9078,000; 2760,000; 8557,000;108,98741
1028,07; 9281,000; 2645,000; 8728,000;109,09091
1032,59; 9505,000; 2542,000; 8976,000;108,22195
1037,10;10008,000; 2552,000; 9493,000;107,41968
1041,62;10391,000; 2645,000; 9874,000;107,15175
1046,12;11163,000; 3172,000;10692,000;106,26330
1050,62;10898,000; 2658,000;10426,000;106,07621
1055,12;10994,000; 2509,000;10544,000;105,60050
1059,62;11008,000; 2352,000;10536,000;105,76735
1064,10;11679,000; 2726,000;11217,000;105,44106
1068,59;12103,000; 2932,000;11644,000;105,26860
1073,07;12269,000; 2693,000;11791,000;105,25390
1077,54;12399,000; 2612,000;11902,000;105,34984
1082,01;12816,000; 2824,000;12356,000;104,82585
1086,48;13115,000; 2801,000;12632,000;104,91303
1090,94;12821,000; 2380,000;12314,000;105,10368
1095,39;14170,000; 3344,000;13669,000;104,85230
1099,85;13797,000; 2612,000;13309,000;104,56203
1104,29;14114,000; 2682,000;13632,000;104,40183
1108,73;13963,000; 2312,000;13510,000;104,04537
1113,17;14766,000; 3042,000;14359,000;103,59636
1117,61;14599,000; 2646,000;14198,000;103,47126
1122,03;15086,000; 3046,000;14722,000;103,11751
1126,46;14743,000; 2527,000;14400,000;102,88891
1130,88;14757,000; 2466,000;14495,000;102,17807
1135,29;15345,000; 3111,000;15219,000;101,04063
1139,70;14809,000; 2407,000;14793,000;100,12918
1144,11;14769,000; 2489,000;14967,000;98,41321
1148,51;14677,000; 2565,000;15172,000;96,07361
1152,90;14654,000; 2579,000;15293,000;94,97404
1157,29;14360,000; 2339,000;15111,000;94,11995
1161,68;14582,000; 2547,000;15452,000;93,25843
1166,06;14330,000; 2534,000;15403,000;91,66213
1170,44;14242,000; 2810,000;15520,000;89,94493
1174,81;13475,000; 2521,000;14948,000;88,14678
1179,18;13344,000; 2667,000;15071,000;86,07707
1183,54;13177,000; 2847,000;15116,000;84,19594
1187,90;12873,000; 2891,000;15091,000;81,81967
1192,25;12409,000; 2667,000;14694,000;81,00108
1196,60;12285,000; 2522,000;14434,000;81,95937
1200,94;12460,000; 2733,000;14497,000;82,68446
1205,28;12130,000; 2575,000;14032,000;83,39880
1209,62;12248,000; 2673,000;14073,000;83,99123
1213,95;12298,000; 2827,000;14061,000;84,30657
1218,27;11986,000; 2397,000;13503,000;86,34072
1222,59;12570,000; 3050,000;13756,000;88,92210
1226,91;12549,000; 2791,000;13486,000;91,23890
1231,22;12328,000; 2566,000;13022,000;93,36266
1235,52;12037,000; 2255,000;12518,000;95,31326
1239,82;12459,000; 2660,000;12731,000;97,29918
1244,12;12115,000; 2513,000;12276,000;98,35092
1248,41;12432,000; 2839,000;12479,000;99,51245
1252,70;11606,000; 2157,000;11531,000;100,80009
1256,98;11868,000; 2405,000;11723,000;101,55613
1261,26;12351,000; 2898,000;12129,000;102,40494
1265,53;11533,000; 2242,000;11284,000;102,75382
1269,80;11726,000; 2393,000;11431,000;103,26400
1274,06;12029,000; 2810,000;11639,000;104,41726
1278,32;11716,000; 2550,000;11295,000;104,81418
1282,57;11765,000; 2625,000;11256,000;105,89735
1286,82;11514,000; 2467,000;11002,000;105,99883
1291,06;11683,000; 2738,000;11125,000;106,65315
1295,30;11602,000; 2653,000;11013,000;107,04545
1299,53;11816,000; 2787,000;11181,000;107,56493
1303,76;11654,000; 2600,000;10932,000;108,66539
1307,99;11877,000; 2905,000;11203,000;108,12244
1312,20;11735,000; 2833,000;11044,000;108,41554
1316,42;11157,000; 2476,000;10478,000;108,48538
1320,63;11136,000; 2579,000;10484,000;108,24794
1324,83;10537,000; 2192,000; 9974,000;107,23464
1329,03;10884,000; 2674,000;10257,000;108,26850
1333,23;10621,000; 2468,000; 9986,000;108,44640
1337,42;10832,000; 2764,000;10213,000;108,30984
1341,60;10190,000; 2379,000; 9662,000;107,24976
1345,78;10418,000; 2742,000; 9883,000;107,49195
1349,96; 9792,000; 2303,000; 9376,000;105,88152
1354,13; 9768,000; 2510,000; 9449,000;104,59720
1358,29; 9412,000; 2356,000; 9196,000;103,15789
1362,46; 9541,000; 2743,000; 9351,000;102,87530
1366,61; 9285,000; 2731,000; 9181,000;101,61240
1370,76; 8790,000; 2399,000; 8708,000;101,29973
1374,91; 9024,000; 2995,000; 9036,000;99,80136
1379,05; 8144,000; 2366,000; 8178,000;99,41500
1383,18; 8912,000; 3283,000; 9009,000;98,30597
1387,32; 7976,000; 2319,000; 8098,000;97,88891
1391,44; 7953,000; 2327,000; 8096,000;97,52123
1395,56; 8762,000; 3137,000; 8942,000;96,89922
1399,68; 7936,000; 2135,000; 8073,000;97,69283
1403,79; 8280,000; 2329,000; 8366,000;98,57545
1407,90; 8208,000; 2263,000; 8269,000;98,98435
1412,00; 8342,000; 2365,000; 8420,000;98,71181
1416,10; 8677,000; 2718,000; 8761,000;98,60996
1420,19; 8378,000; 2409,000; 8400,000;99,63278
1424,27; 8578,000; 2632,000; 8589,000;99,81534
1428,36; 8674,000; 2719,000; 8620,000;100,91510
1432,43; 8781,000; 2846,000; 8708,000;101,24531
1436,50; 8440,000; 2533,000; 8354,000;101,47741
1440,57; 8623,000; 2732,000; 8530,000;101,60400
1444,63; 8233,000; 2366,000; 8116,000;102,03478
1448,69; 7989,000; 2161,000; 7844,000;102,55147
1452,74; 8270,000; 2447,000; 8116,000;102,71653
1456,79; 8138,000; 2238,000; 7867,000;104,81435
1460,83; 8237,000; 2400,000; 7935,000;105,45619
1464,87; 8534,000; 2691,000; 8180,000;106,44926
1468,90; 8522,000; 2650,000; 8132,000;107,11419
1472,93; 8361,000; 2603,000; 7978,000;107,12558
1476,95; 8351,000; 2611,000; 7981,000;106,89013
1480,96; 8050,000; 2298,000; 7601,000;108,46691
1484,98; 8261,000; 2481,000; 7828,000;108,09800
1488,98; 8307,000; 2611,000; 7844,000;108,84770
1492,98; 8422,000; 2725,000; 7881,000;110,49263
1496,98; 7993,000; 2361,000; 7476,000;110,10753
1500,97; 8309,000; 2789,000; 7826,000;109,58904
1504,96; 7674,000; 2172,000; 7164,000;110,21635
1508,94; 8309,000; 2773,000; 7774,000;110,69786
1512,92; 7867,000; 2382,000; 7342,000;110,58468
1516,89; 7932,000; 2502,000; 7430,000;110,18669
1520,85; 7812,000; 2384,000; 7295,000;110,52739
1524,81; 8381,000; 2962,000; 7824,000;111,45619
1528,77; 7770,000; 2324,000; 7205,000;111,57550
1532,72; 7795,000; 2407,000; 7255,000;111,13861
1536,67; 8250,000; 2883,000; 7677,000;111,95244
1540,61; 7602,000; 2376,000; 7009,000;112,79948
1544,54; 8004,000; 2727,000; 7388,000;113,21605
1548,47; 7439,000; 2158,000; 6748,000;115,05447
1552,40; 7803,000; 2615,000; 7147,000;114,47485
1556,32; 7807,000; 2575,000; 7088,000;115,93175
1560,23; 7519,000; 2484,000; 6850,000;115,32295
1564,15; 7570,000; 2555,000; 6922,000;114,83856
1568,05; 7375,000; 2399,000; 6734,000;114,78662
1571,95; 7631,000; 2725,000; 6961,000;115,81681
1575,84; 7243,000; 2347,000; 6574,000;115,82683
1579,73; 7499,000; 2624,000; 6795,000;116,87845
1583,62; 7323,000; 2543,000; 6679,000;115,57060
1587,50; 6981,000; 2249,000; 6365,000;114,96599
1591,37; 7447,000; 2806,000; 6870,000;114,19783
1595,24; 7071,000; 2531,000; 6521,000;113,78446
1599,11; 6753,000; 2244,000; 6219,000;113,43396
1602,96; 6765,000; 2333,000; 6225,000;113,87461
1606,82; 6658,000; 2230,000; 6074,000;115,19251
1610,67; 6821,000; 2503,000; 6261,000;114,90154
1614,51; 6909,000; 2689,000; 6400,000;113,71598
1618,35; 6452,000; 2276,000; 5907,000;115,00964
1622,18; 6552,000; 2494,000; 6062,000;113,73318
1626,01; 6575,000; 2495,000; 6059,000;114,47811
1629,83; 6604,000; 2571,000; 6064,000;115,45949
1633,65; 6658,000; 2670,000; 6118,000;115,66125
1637,46; 6306,000; 2400,000; 5785,000;115,39143
1641,27; 6240,000; 2327,000; 5711,000;115,63239
1645,07; 6143,000; 2289,000; 5633,000;115,25120
1648,86; 6106,000; 2319,000; 5590,000;115,77499
1652,66; 6067,000; 2259,000; 5557,000;115,46392
1656,44; 6091,000; 2366,000; 5600,000;115,18244
1660,22; 6202,000; 2535,000; 5719,000;115,16960
1664,00; 6275,000; 2684,000; 5850,000;113,42388
1667,77; 5995,000; 2449,000; 5553,000;114,23969
1671,53; 5837,000; 2433,000; 5436,000;113,35331
1675,29; 5667,000; 2285,000; 5318,000;111,50676
1679,05; 5791,000; 2563,000; 5561,000;107,67178
1682,80; 5503,000; 2442,000; 5389,000;103,86834
1686,54; 5589,000; 2708,000; 5604,000;99,48204
1690,28; 5386,000; 2658,000; 5556,000;94,13389
1694,01; 4791,000; 2248,000; 5057,000;90,53044
1697,74; 4867,000; 2391,000; 5182,000;88,71372
1701,46; 5005,000; 2601,000; 5350,000;87,44998
1705,18; 4602,000; 2310,000; 4996,000;85,33135
1708,89; 4569,000; 2233,000; 4884,000;88,11769
1712,60; 4915,000; 2612,000; 5224,000;88,16998
1716,30; 4917,000; 2623,000; 5179,000;89,74961
1720,00; 4918,000; 2660,000; 5201,000;88,86265
1723,69; 4775,000; 2563,000; 5072,000;88,16261
1727,38; 4466,000; 2204,000; 4712,000;90,19139
1731,06; 4787,000; 2496,000; 4968,000;92,67799
1734,73; 4772,000; 2459,000; 4917,000;94,10090
1738,40; 4587,000; 2292,000; 4734,000;93,98034
1742,07; 5015,000; 2663,000; 5138,000;95,03030
1745,73; 4663,000; 2312,000; 4760,000;96,03758
1749,38; 5015,000; 2592,000; 5014,000;100,04129
1753,03; 5088,000; 2685,000; 5008,000;103,44382
1756,67; 4823,000; 2466,000; 4783,000;101,72637
1760,31; 4875,000; 2637,000; 4863,000;100,53908
1763,94; 4785,000; 2564,000; 4778,000;100,31617
1767,57; 4769,000; 2562,000; 4713,000;102,60344
1771,19; 4698,000; 2442,000; 4522,000;108,46154
1774,81; 4819,000; 2565,000; 4651,000;108,05369
1778,42; 4849,000; 2584,000; 4617,000;111,41171
1782,03; 4612,000; 2412,000; 4445,000;108,21446
1785,63; 4514,000; 2341,000; 4330,000;109,25088
1789,22; 4565,000; 2405,000; 4385,000;109,09091
1792,81; 4429,000; 2278,000; 4185,000;112,79497
1796,40; 4320,000; 2182,000; 4076,000;112,88279
1799,98; 4840,000; 2714,000; 4598,000;112,84501
1803,55; 4587,000; 2460,000; 4327,000;113,92608
1807,12; 4432,000; 2348,000; 4172,000;114,25439
1810,68; 5062,000; 2987,000; 4794,000;114,83121
1814,24; 4296,000; 2255,000; 4030,000;114,98592
1817,79; 4790,000; 2759,000; 4513,000;115,79247
1821,34; 4899,000; 2932,000; 4641,000;115,09655
1824,88; 4272,000; 2324,000; 4030,000;114,18523
1828,41; 4539,000; 2587,000; 4283,000;115,09434
1831,94; 4376,000; 2421,000; 4081,000;117,77108
1835,47; 4151,000; 2217,000; 3864,000;117,42562
1838,99; 4519,000; 2598,000; 4226,000;117,99754
1842,50; 4322,000; 2418,000; 4025,000;118,48164
1846,01; 4201,000; 2307,000; 3885,000;120,02535
1849,51; 4030,000; 2156,000; 3694,000;121,84655
1853,01; 4149,000; 2262,000; 3774,000;124,80159
1856,50; 4915,000; 3049,000; 4559,000;123,57616
1859,99; 4081,000; 2201,000; 3668,000;128,15269
1863,47; 4382,000; 2547,000; 3994,000;126,81410
1866,94; 4107,000; 2314,000; 3711,000;128,34646
1870,41; 4558,000; 2737,000; 4119,000;131,76556
1873,88; 4301,000; 2520,000; 3897,000;129,33914
1877,34; 4602,000; 2792,000; 4172,000;131,15942
1880,79; 4477,000; 2713,000; 4037,000;133,23263
1884,24; 4471,000; 2665,000; 3995,000;135,78947
1887,68; 4069,000; 2302,000; 3591,000;137,08301
1891,12; 3964,000; 2172,000; 3462,000;138,91473
1894,55; 4069,000; 2296,000; 3582,000;137,86936
1897,98; 4322,000; 2564,000; 3828,000;139,08228
1901,40; 4039,000; 2344,000; 3603,000;134,63066

