014_PP_FCR_3
Integration time [ms]: 100,000
Averaging Nr. [scans]: 1
Smoothing Nr. [pixels]: 0
Data measured with spectrometer [name]: 1204091U1
Wave   ;Sample   ;Dark     ;Reference;Reflectance
[nm]   ;[counts] ;[counts] ;[counts] ;[%]

1014,48; 9970,000; 2453,000; 7571,000;146,87378
1019,01;10592,000; 2571,000; 8072,000;145,80985
1023,54;11214,000; 2760,000; 8557,000;145,83405
1028,07;11527,000; 2645,000; 8728,000;146,01348
1032,59;11872,000; 2542,000; 8976,000;145,01088
1037,10;12491,000; 2552,000; 9493,000;143,19262
1041,62;13010,000; 2645,000; 9874,000;143,38083
1046,12;13979,000; 3172,000;10692,000;143,71011
1050,62;13757,000; 2658,000;10426,000;142,88105
1055,12;13988,000; 2509,000;10544,000;142,86248
1059,62;14067,000; 2352,000;10536,000;143,14516
1064,10;14853,000; 2726,000;11217,000;142,82181
1068,59;15391,000; 2932,000;11644,000;143,00964
1073,07;15684,000; 2693,000;11791,000;142,78962
1077,54;15924,000; 2612,000;11902,000;143,29386
1082,01;16417,000; 2824,000;12356,000;142,60386
1086,48;16832,000; 2801,000;12632,000;142,72200
1090,94;16617,000; 2380,000;12314,000;143,31588
1095,39;18122,000; 3344,000;13669,000;143,12833
1099,85;17858,000; 2612,000;13309,000;142,52594
1104,29;18272,000; 2682,000;13632,000;142,37443
1108,73;18222,000; 2312,000;13510,000;142,07894
1113,17;19156,000; 3042,000;14359,000;142,38756
1117,61;19009,000; 2646,000;14198,000;141,64647
1122,03;19613,000; 3046,000;14722,000;141,88935
1126,46;19334,000; 2527,000;14400,000;141,55647
1130,88;19487,000; 2466,000;14495,000;141,49971
1135,29;20206,000; 3111,000;15219,000;141,18764
1139,70;19810,000; 2407,000;14793,000;140,50541
1144,11;19944,000; 2489,000;14967,000;139,88620
1148,51;20049,000; 2565,000;15172,000;138,68486
1152,90;20133,000; 2579,000;15293,000;138,06827
1157,29;19903,000; 2339,000;15111,000;137,51957
1161,68;20243,000; 2547,000;15452,000;137,12515
1166,06;20068,000; 2534,000;15403,000;136,24990
1170,44;19988,000; 2810,000;15520,000;135,15342
1174,81;19110,000; 2521,000;14948,000;133,49159
1179,18;19069,000; 2667,000;15071,000;132,23154
1183,54;18807,000; 2847,000;15116,000;130,08395
1187,90;18490,000; 2891,000;15091,000;127,86066
1192,25;17976,000; 2667,000;14694,000;127,28860
1196,60;17801,000; 2522,000;14434,000;128,26561
1200,94;17878,000; 2733,000;14497,000;128,74022
1205,28;17519,000; 2575,000;14032,000;130,43554
1209,62;17533,000; 2673,000;14073,000;130,35088
1213,95;17534,000; 2827,000;14061,000;130,91508
1218,27;17204,000; 2397,000;13503,000;133,32433
1222,59;17517,000; 3050,000;13756,000;135,12983
1226,91;17513,000; 2791,000;13486,000;137,65311
1231,22;17160,000; 2566,000;13022,000;139,57536
1235,52;16767,000; 2255,000;12518,000;141,40115
1239,82;17084,000; 2660,000;12731,000;143,22312
1244,12;16684,000; 2513,000;12276,000;145,15006
1248,41;16940,000; 2839,000;12479,000;146,27593
1252,70;16008,000; 2157,000;11531,000;147,75976
1256,98;16289,000; 2405,000;11723,000;149,00193
1261,26;16698,000; 2898,000;12129,000;149,49626
1265,53;15808,000; 2242,000;11284,000;150,03318
1269,80;16014,000; 2393,000;11431,000;150,70812
1274,06;16146,000; 2810,000;11639,000;151,04768
1278,32;15828,000; 2550,000;11295,000;151,83533
1282,57;15871,000; 2625,000;11256,000;153,47005
1286,82;15594,000; 2467,000;11002,000;153,80199
1291,06;15749,000; 2738,000;11125,000;155,13294
1295,30;15711,000; 2653,000;11013,000;156,19617
1299,53;15864,000; 2787,000;11181,000;155,78985
1303,76;15639,000; 2600,000;10932,000;156,49304
1307,99;15923,000; 2905,000;11203,000;156,88118
1312,20;15704,000; 2833,000;11044,000;156,75314
1316,42;15079,000; 2476,000;10478,000;157,49813
1320,63;15028,000; 2579,000;10484,000;157,48261
1324,83;14491,000; 2192,000; 9974,000;158,04420
1329,03;14717,000; 2674,000;10257,000;158,81577
1333,23;14394,000; 2468,000; 9986,000;158,63262
1337,42;14655,000; 2764,000;10213,000;159,63217
1341,60;14004,000; 2379,000; 9662,000;159,61829
1345,78;14075,000; 2742,000; 9883,000;158,70326
1349,96;13578,000; 2303,000; 9376,000;159,40902
1354,13;13561,000; 2510,000; 9449,000;159,25926
1358,29;13091,000; 2356,000; 9196,000;156,94444
1362,46;13024,000; 2743,000; 9351,000;155,58414
1366,61;12891,000; 2731,000; 9181,000;157,51938
1370,76;12303,000; 2399,000; 8708,000;156,98209
1374,91;12342,000; 2995,000; 9036,000;154,72604
1379,05;11347,000; 2366,000; 8178,000;154,52512
1383,18;12046,000; 3283,000; 9009,000;153,03877
1387,32;11031,000; 2319,000; 8098,000;150,75273
1391,44;11109,000; 2327,000; 8096,000;152,22742
1395,56;11825,000; 3137,000; 8942,000;149,66408
1399,68;11023,000; 2135,000; 8073,000;149,68003
1403,79;11455,000; 2329,000; 8366,000;151,16780
1407,90;11407,000; 2263,000; 8269,000;152,24775
1412,00;11500,000; 2365,000; 8420,000;150,86705
1416,10;11884,000; 2718,000; 8761,000;151,67963
1420,19;11589,000; 2409,000; 8400,000;153,22984
1424,27;11741,000; 2632,000; 8589,000;152,91254
1428,36;11743,000; 2719,000; 8620,000;152,92323
1432,43;11798,000; 2846,000; 8708,000;152,71238
1436,50;11546,000; 2533,000; 8354,000;154,83594
1440,57;11662,000; 2732,000; 8530,000;154,01863
1444,63;11246,000; 2366,000; 8116,000;154,43478
1448,69;11055,000; 2161,000; 7844,000;156,50185
1452,74;11305,000; 2447,000; 8116,000;156,25331
1456,79;11033,000; 2238,000; 7867,000;156,24445
1460,83;11139,000; 2400,000; 7935,000;157,88618
1464,87;11413,000; 2691,000; 8180,000;158,89962
1468,90;11371,000; 2650,000; 8132,000;159,08428
1472,93;11130,000; 2603,000; 7978,000;158,64186
1476,95;11190,000; 2611,000; 7981,000;159,75791
1480,96;10877,000; 2298,000; 7601,000;161,77635
1484,98;11020,000; 2481,000; 7828,000;159,69703
1488,98;10863,000; 2611,000; 7844,000;157,69157
1492,98;10957,000; 2725,000; 7881,000;159,65865
1496,98;10605,000; 2361,000; 7476,000;161,17302
1500,97;10956,000; 2789,000; 7826,000;162,14016
1504,96;10316,000; 2172,000; 7164,000;163,14103
1508,94;10809,000; 2773,000; 7774,000;160,68786
1512,92;10550,000; 2382,000; 7342,000;164,67742
1516,89;10608,000; 2502,000; 7430,000;164,48864
1520,85;10396,000; 2384,000; 7295,000;163,14396
1524,81;10808,000; 2962,000; 7824,000;161,37392
1528,77;10290,000; 2324,000; 7205,000;163,20426
1532,72;10327,000; 2407,000; 7255,000;163,36634
1536,67;10698,000; 2883,000; 7677,000;163,01627
1540,61;10008,000; 2376,000; 7009,000;164,73128
1544,54;10324,000; 2727,000; 7388,000;162,99077
1548,47; 9795,000; 2158,000; 6748,000;166,38344
1552,40;10195,000; 2615,000; 7147,000;167,25508
1556,32;10073,000; 2575,000; 7088,000;166,14226
1560,23; 9750,000; 2484,000; 6850,000;166,42235
1564,15; 9816,000; 2555,000; 6922,000;166,26975
1568,05; 9669,000; 2399,000; 6734,000;167,70473
1571,95; 9877,000; 2725,000; 6961,000;168,83853
1575,84; 9290,000; 2347,000; 6574,000;164,25361
1579,73; 9459,000; 2624,000; 6795,000;163,86958
1583,62; 9506,000; 2543,000; 6679,000;168,35106
1587,50; 9028,000; 2249,000; 6365,000;164,69874
1591,37; 9554,000; 2806,000; 6870,000;166,04331
1595,24; 9099,000; 2531,000; 6521,000;164,61153
1599,11; 8765,000; 2244,000; 6219,000;164,05031
1602,96; 8799,000; 2333,000; 6225,000;166,13566
1606,82; 8578,000; 2230,000; 6074,000;165,14048
1610,67; 8769,000; 2503,000; 6261,000;166,73763
1614,51; 8925,000; 2689,000; 6400,000;168,04096
1618,35; 8372,000; 2276,000; 5907,000;167,88763
1622,18; 8433,000; 2494,000; 6062,000;166,45179
1626,01; 8341,000; 2495,000; 6059,000;164,02918
1629,83; 8360,000; 2571,000; 6064,000;165,73146
1633,65; 8362,000; 2670,000; 6118,000;165,08121
1637,46; 8056,000; 2400,000; 5785,000;167,09010
1641,27; 7978,000; 2327,000; 5711,000;166,99173
1645,07; 7818,000; 2289,000; 5633,000;165,34091
1648,86; 7768,000; 2319,000; 5590,000;166,58514
1652,66; 7743,000; 2259,000; 5557,000;166,28260
1656,44; 7696,000; 2366,000; 5600,000;164,81138
1660,22; 7733,000; 2535,000; 5719,000;163,25377
1664,00; 7853,000; 2684,000; 5850,000;163,26595
1667,77; 7444,000; 2449,000; 5553,000;160,92139
1671,53; 7309,000; 2433,000; 5436,000;162,37096
1675,29; 7058,000; 2285,000; 5318,000;157,36894
1679,05; 7102,000; 2563,000; 5561,000;151,40093
1682,80; 6758,000; 2442,000; 5389,000;146,45402
1686,54; 6742,000; 2708,000; 5604,000;139,29558
1690,28; 6298,000; 2658,000; 5556,000;125,60386
1694,01; 5715,000; 2248,000; 5057,000;123,42471
1697,74; 5705,000; 2391,000; 5182,000;118,73880
1701,46; 5737,000; 2601,000; 5350,000;114,07785
1705,18; 5287,000; 2310,000; 4996,000;110,83395
1708,89; 5135,000; 2233,000; 4884,000;109,46813
1712,60; 5559,000; 2612,000; 5224,000;112,82542
1716,30; 5600,000; 2623,000; 5179,000;116,47105
1720,00; 5542,000; 2660,000; 5201,000;113,41991
1723,69; 5341,000; 2563,000; 5072,000;110,72140
1727,38; 4943,000; 2204,000; 4712,000;109,21053
1731,06; 5327,000; 2496,000; 4968,000;114,52265
1734,73; 5262,000; 2459,000; 4917,000;114,03580
1738,40; 5145,000; 2292,000; 4734,000;116,83047
1742,07; 5642,000; 2663,000; 5138,000;120,36364
1745,73; 5473,000; 2312,000; 4760,000;129,12582
1749,38; 5811,000; 2592,000; 5014,000;132,90669
1753,03; 5759,000; 2685,000; 5008,000;132,32889
1756,67; 5568,000; 2466,000; 4783,000;133,88002
1760,31; 5725,000; 2637,000; 4863,000;138,72417
1763,94; 5600,000; 2564,000; 4778,000;137,12737
1767,57; 5547,000; 2562,000; 4713,000;138,77266
1771,19; 5367,000; 2442,000; 4522,000;140,62500
1774,81; 5510,000; 2565,000; 4651,000;141,17929
1778,42; 5564,000; 2584,000; 4617,000;146,58141
1782,03; 5356,000; 2412,000; 4445,000;144,81062
1785,63; 5279,000; 2341,000; 4330,000;147,71242
1789,22; 5313,000; 2405,000; 4385,000;146,86869
1792,81; 5129,000; 2278,000; 4185,000;149,50184
1796,40; 5032,000; 2182,000; 4076,000;150,47518
1799,98; 5450,000; 2714,000; 4598,000;145,22293
1803,55; 5173,000; 2460,000; 4327,000;145,31334
1807,12; 5020,000; 2348,000; 4172,000;146,49123
1810,68; 5638,000; 2987,000; 4794,000;146,70725
1814,24; 4932,000; 2255,000; 4030,000;150,81690
1817,79; 5333,000; 2759,000; 4513,000;146,75029
1821,34; 5498,000; 2932,000; 4641,000;150,14628
1824,88; 4912,000; 2324,000; 4030,000;151,69988
1828,41; 5085,000; 2587,000; 4283,000;147,28774
1831,94; 4902,000; 2421,000; 4081,000;149,45783
1835,47; 4682,000; 2217,000; 3864,000;149,66606
1838,99; 5097,000; 2598,000; 4226,000;153,50123
1842,50; 4924,000; 2418,000; 4025,000;155,94275
1846,01; 4760,000; 2307,000; 3885,000;155,44994
1849,51; 4605,000; 2156,000; 3694,000;159,23277
1853,01; 4749,000; 2262,000; 3774,000;164,48413
1856,50; 5604,000; 3049,000; 4559,000;169,20530
1859,99; 4692,000; 2201,000; 3668,000;169,80232
1863,47; 4994,000; 2547,000; 3994,000;169,10850
1866,94; 4702,000; 2314,000; 3711,000;170,93772
1870,41; 5138,000; 2737,000; 4119,000;173,73372
1873,88; 4860,000; 2520,000; 3897,000;169,93464
1877,34; 5052,000; 2792,000; 4172,000;163,76812
1880,79; 4911,000; 2713,000; 4037,000;166,01208
1884,24; 4915,000; 2665,000; 3995,000;169,17293
1887,68; 4507,000; 2302,000; 3591,000;171,06284
1891,12; 4382,000; 2172,000; 3462,000;171,31783
1894,55; 4498,000; 2296,000; 3582,000;171,22862
1897,98; 4739,000; 2564,000; 3828,000;172,07278
1901,40; 4495,000; 2344,000; 3603,000;170,84988

