042white_PP_FCR_2
Integration time [ms]: 100,000
Averaging Nr. [scans]: 1
Smoothing Nr. [pixels]: 0
Data measured with spectrometer [name]: 1204091U1
Wave   ;Sample   ;Dark     ;Reference;Reflectance
[nm]   ;[counts] ;[counts] ;[counts] ;[%]

1014,48; 9199,000; 2453,000; 7571,000;131,80930
1019,01; 9764,000; 2571,000; 8072,000;130,75804
1023,54;10328,000; 2760,000; 8557,000;130,55028
1028,07;10577,000; 2645,000; 8728,000;130,39619
1032,59;10879,000; 2542,000; 8976,000;129,57725
1037,10;11441,000; 2552,000; 9493,000;128,06512
1041,62;11900,000; 2645,000; 9874,000;128,02601
1046,12;12766,000; 3172,000;10692,000;127,57979
1050,62;12540,000; 2658,000;10426,000;127,21421
1055,12;12715,000; 2509,000;10544,000;127,01929
1059,62;12736,000; 2352,000;10536,000;126,88172
1064,10;13510,000; 2726,000;11217,000;127,00506
1068,59;13989,000; 2932,000;11644,000;126,91690
1073,07;14194,000; 2693,000;11791,000;126,41240
1077,54;14405,000; 2612,000;11902,000;126,94295
1082,01;14862,000; 2824,000;12356,000;126,29039
1086,48;15233,000; 2801,000;12632,000;126,45713
1090,94;14980,000; 2380,000;12314,000;126,83713
1095,39;16407,000; 3344,000;13669,000;126,51816
1099,85;16098,000; 2612,000;13309,000;126,07273
1104,29;16459,000; 2682,000;13632,000;125,81735
1108,73;16388,000; 2312,000;13510,000;125,70102
1113,17;17200,000; 3042,000;14359,000;125,10383
1117,61;17013,000; 2646,000;14198,000;124,36807
1122,03;17537,000; 3046,000;14722,000;124,10928
1126,46;17169,000; 2527,000;14400,000;123,32182
1130,88;17208,000; 2466,000;14495,000;122,55383
1135,29;17830,000; 3111,000;15219,000;121,56426
1139,70;17306,000; 2407,000;14793,000;120,28904
1144,11;17298,000; 2489,000;14967,000;118,68088
1148,51;17234,000; 2565,000;15172,000;116,35599
1152,90;17120,000; 2579,000;15293,000;114,36999
1157,29;16837,000; 2339,000;15111,000;113,51394
1161,68;17057,000; 2547,000;15452,000;112,43704
1166,06;16777,000; 2534,000;15403,000;110,67682
1170,44;16645,000; 2810,000;15520,000;108,85130
1174,81;15788,000; 2521,000;14948,000;106,75948
1179,18;15636,000; 2667,000;15071,000;104,55498
1183,54;15356,000; 2847,000;15116,000;101,95615
1187,90;15026,000; 2891,000;15091,000;99,46721
1192,25;14502,000; 2667,000;14694,000;98,40359
1196,60;14240,000; 2522,000;14434,000;98,37139
1200,94;14368,000; 2733,000;14497,000;98,90343
1205,28;13988,000; 2575,000;14032,000;99,61596
1209,62;13997,000; 2673,000;14073,000;99,33333
1213,95;14081,000; 2827,000;14061,000;100,17803
1218,27;13662,000; 2397,000;13503,000;101,43166
1222,59;14198,000; 3050,000;13756,000;104,12853
1226,91;14222,000; 2791,000;13486,000;106,88172
1231,22;14032,000; 2566,000;13022,000;109,65953
1235,52;13740,000; 2255,000;12518,000;111,90685
1239,82;14125,000; 2660,000;12731,000;113,84172
1244,12;13791,000; 2513,000;12276,000;115,51777
1248,41;14073,000; 2839,000;12479,000;116,53527
1252,70;13200,000; 2157,000;11531,000;117,80457
1256,98;13532,000; 2405,000;11723,000;119,41404
1261,26;13962,000; 2898,000;12129,000;119,85700
1265,53;13127,000; 2242,000;11284,000;120,38266
1269,80;13346,000; 2393,000;11431,000;121,18832
1274,06;13542,000; 2810,000;11639,000;121,55397
1278,32;13230,000; 2550,000;11295,000;122,12693
1282,57;13233,000; 2625,000;11256,000;122,90580
1286,82;13001,000; 2467,000;11002,000;123,42121
1291,06;13083,000; 2738,000;11125,000;123,34565
1295,30;13021,000; 2653,000;11013,000;124,01914
1299,53;13209,000; 2787,000;11181,000;124,16011
1303,76;12938,000; 2600,000;10932,000;124,07585
1307,99;13210,000; 2905,000;11203,000;124,18655
1312,20;13001,000; 2833,000;11044,000;123,83388
1316,42;12400,000; 2476,000;10478,000;124,01900
1320,63;12360,000; 2579,000;10484,000;123,73182
1324,83;11845,000; 2192,000; 9974,000;124,04266
1329,03;12085,000; 2674,000;10257,000;124,10655
1333,23;11756,000; 2468,000; 9986,000;123,54350
1337,42;11932,000; 2764,000;10213,000;123,07692
1341,60;11342,000; 2379,000; 9662,000;123,06742
1345,78;11478,000; 2742,000; 9883,000;122,33581
1349,96;10788,000; 2303,000; 9376,000;119,96324
1354,13;10700,000; 2510,000; 9449,000;118,02853
1358,29;10272,000; 2356,000; 9196,000;115,73099
1362,46;10309,000; 2743,000; 9351,000;114,49758
1366,61;10063,000; 2731,000; 9181,000;113,67442
1370,76; 9454,000; 2399,000; 8708,000;111,82438
1374,91; 9704,000; 2995,000; 9036,000;111,05777
1379,05; 8776,000; 2366,000; 8178,000;110,28906
1383,18; 9454,000; 3283,000; 9009,000;107,77157
1387,32; 8467,000; 2319,000; 8098,000;106,38519
1391,44; 8463,000; 2327,000; 8096,000;106,36159
1395,56; 9282,000; 3137,000; 8942,000;105,85702
1399,68; 8436,000; 2135,000; 8073,000;106,11317
1403,79; 8787,000; 2329,000; 8366,000;106,97366
1407,90; 8641,000; 2263,000; 8269,000;106,19381
1412,00; 8789,000; 2365,000; 8420,000;106,09414
1416,10; 9171,000; 2718,000; 8761,000;106,78471
1420,19; 8874,000; 2409,000; 8400,000;107,91187
1424,27; 9039,000; 2632,000; 8589,000;107,55414
1428,36; 9086,000; 2719,000; 8620,000;107,89697
1432,43; 9204,000; 2846,000; 8708,000;108,46128
1436,50; 8953,000; 2533,000; 8354,000;110,29033
1440,57; 9131,000; 2732,000; 8530,000;110,36564
1444,63; 8725,000; 2366,000; 8116,000;110,59130
1448,69; 8489,000; 2161,000; 7844,000;111,34964
1452,74; 8766,000; 2447,000; 8116,000;111,46587
1456,79; 8536,000; 2238,000; 7867,000;111,88488
1460,83; 8657,000; 2400,000; 7935,000;113,04426
1464,87; 8914,000; 2691,000; 8180,000;113,37220
1468,90; 8944,000; 2650,000; 8132,000;114,81211
1472,93; 8807,000; 2603,000; 7978,000;115,42326
1476,95; 8732,000; 2611,000; 7981,000;113,98510
1480,96; 8472,000; 2298,000; 7601,000;116,42467
1484,98; 8627,000; 2481,000; 7828,000;114,94296
1488,98; 8620,000; 2611,000; 7844,000;114,82897
1492,98; 8699,000; 2725,000; 7881,000;115,86501
1496,98; 8320,000; 2361,000; 7476,000;116,50049
1500,97; 8710,000; 2789,000; 7826,000;117,55013
1504,96; 8015,000; 2172,000; 7164,000;117,04728
1508,94; 8636,000; 2773,000; 7774,000;117,23655
1512,92; 8269,000; 2382,000; 7342,000;118,68952
1516,89; 8382,000; 2502,000; 7430,000;119,31818
1520,85; 8205,000; 2384,000; 7295,000;118,52983
1524,81; 8781,000; 2962,000; 7824,000;119,68326
1528,77; 8142,000; 2324,000; 7205,000;119,19689
1532,72; 8166,000; 2407,000; 7255,000;118,79125
1536,67; 8619,000; 2883,000; 7677,000;119,64956
1540,61; 7962,000; 2376,000; 7009,000;120,56983
1544,54; 8322,000; 2727,000; 7388,000;120,03862
1548,47; 7731,000; 2158,000; 6748,000;121,41612
1552,40; 8131,000; 2615,000; 7147,000;121,71227
1556,32; 8055,000; 2575,000; 7088,000;121,42699
1560,23; 7781,000; 2484,000; 6850,000;121,32387
1564,15; 7801,000; 2555,000; 6922,000;120,12823
1568,05; 7627,000; 2399,000; 6734,000;120,59977
1571,95; 7879,000; 2725,000; 6961,000;121,67139
1575,84; 7415,000; 2347,000; 6574,000;119,89591
1579,73; 7644,000; 2624,000; 6795,000;120,35483
1583,62; 7484,000; 2543,000; 6679,000;119,46325
1587,50; 7149,000; 2249,000; 6365,000;119,04762
1591,37; 7631,000; 2806,000; 6870,000;118,72539
1595,24; 7251,000; 2531,000; 6521,000;118,29574
1599,11; 6904,000; 2244,000; 6219,000;117,23270
1602,96; 6926,000; 2333,000; 6225,000;118,01131
1606,82; 6754,000; 2230,000; 6074,000;117,68991
1610,67; 6959,000; 2503,000; 6261,000;118,57371
1614,51; 7107,000; 2689,000; 6400,000;119,05147
1618,35; 6596,000; 2276,000; 5907,000;118,97549
1622,18; 6677,000; 2494,000; 6062,000;117,23655
1626,01; 6611,000; 2495,000; 6059,000;115,48822
1629,83; 6607,000; 2571,000; 6064,000;115,54538
1633,65; 6623,000; 2670,000; 6118,000;114,64617
1637,46; 6290,000; 2400,000; 5785,000;114,91876
1641,27; 6226,000; 2327,000; 5711,000;115,21868
1645,07; 6129,000; 2289,000; 5633,000;114,83254
1648,86; 6093,000; 2319,000; 5590,000;115,37756
1652,66; 6035,000; 2259,000; 5557,000;114,49363
1656,44; 6065,000; 2366,000; 5600,000;114,37848
1660,22; 6097,000; 2535,000; 5719,000;111,87186
1664,00; 6232,000; 2684,000; 5850,000;112,06570
1667,77; 5852,000; 2449,000; 5553,000;109,63273
1671,53; 5721,000; 2433,000; 5436,000;109,49051
1675,29; 5520,000; 2285,000; 5318,000;106,66007
1679,05; 5672,000; 2563,000; 5561,000;103,70247
1682,80; 5414,000; 2442,000; 5389,000;100,84832
1686,54; 5482,000; 2708,000; 5604,000;95,78729
1690,28; 5238,000; 2658,000; 5556,000;89,02692
1694,01; 4668,000; 2248,000; 5057,000;86,15166
1697,74; 4782,000; 2391,000; 5182,000;85,66822
1701,46; 4937,000; 2601,000; 5350,000;84,97636
1705,18; 4585,000; 2310,000; 4996,000;84,69844
1708,89; 4443,000; 2233,000; 4884,000;83,36477
1712,60; 4820,000; 2612,000; 5224,000;84,53292
1716,30; 4785,000; 2623,000; 5179,000;84,58529
1720,00; 4778,000; 2660,000; 5201,000;83,35301
1723,69; 4686,000; 2563,000; 5072,000;84,61538
1727,38; 4329,000; 2204,000; 4712,000;84,72887
1731,06; 4616,000; 2496,000; 4968,000;85,76052
1734,73; 4562,000; 2459,000; 4917,000;85,55736
1738,40; 4415,000; 2292,000; 4734,000;86,93694
1742,07; 4847,000; 2663,000; 5138,000;88,24242
1745,73; 4504,000; 2312,000; 4760,000;89,54248
1749,38; 4778,000; 2592,000; 5014,000;90,25599
1753,03; 4847,000; 2685,000; 5008,000;93,06931
1756,67; 4599,000; 2466,000; 4783,000;92,05870
1760,31; 4727,000; 2637,000; 4863,000;93,89039
1763,94; 4616,000; 2564,000; 4778,000;92,68293
1767,57; 4537,000; 2562,000; 4713,000;91,81776
1771,19; 4469,000; 2442,000; 4522,000;97,45192
1774,81; 4593,000; 2565,000; 4651,000;97,21956
1778,42; 4623,000; 2584,000; 4617,000;100,29513
1782,03; 4436,000; 2412,000; 4445,000;99,55730
1785,63; 4370,000; 2341,000; 4330,000;102,01106
1789,22; 4454,000; 2405,000; 4385,000;103,48485
1792,81; 4262,000; 2278,000; 4185,000;104,03776
1796,40; 4127,000; 2182,000; 4076,000;102,69271
1799,98; 4642,000; 2714,000; 4598,000;102,33546
1803,55; 4341,000; 2460,000; 4327,000;100,74987
1807,12; 4167,000; 2348,000; 4172,000;99,72588
1810,68; 4801,000; 2987,000; 4794,000;100,38738
1814,24; 4075,000; 2255,000; 4030,000;102,53521
1817,79; 4557,000; 2759,000; 4513,000;102,50855
1821,34; 4724,000; 2932,000; 4641,000;104,85664
1824,88; 4097,000; 2324,000; 4030,000;103,92732
1828,41; 4326,000; 2587,000; 4283,000;102,53538
1831,94; 4187,000; 2421,000; 4081,000;106,38554
1835,47; 3996,000; 2217,000; 3864,000;108,01457
1838,99; 4362,000; 2598,000; 4226,000;108,35381
1842,50; 4152,000; 2418,000; 4025,000;107,90292
1846,01; 4049,000; 2307,000; 3885,000;110,39290
1849,51; 3845,000; 2156,000; 3694,000;109,81795
1853,01; 3974,000; 2262,000; 3774,000;113,22751
1856,50; 4757,000; 3049,000; 4559,000;113,11258
1859,99; 3858,000; 2201,000; 3668,000;112,95160
1863,47; 4212,000; 2547,000; 3994,000;115,06565
1866,94; 3942,000; 2314,000; 3711,000;116,53543
1870,41; 4381,000; 2737,000; 4119,000;118,95803
1873,88; 4190,000; 2520,000; 3897,000;121,27814
1877,34; 4423,000; 2792,000; 4172,000;118,18841
1880,79; 4296,000; 2713,000; 4037,000;119,56193
1884,24; 4247,000; 2665,000; 3995,000;118,94737
1887,68; 3880,000; 2302,000; 3591,000;122,42048
1891,12; 3737,000; 2172,000; 3462,000;121,31783
1894,55; 3841,000; 2296,000; 3582,000;120,13997
1897,98; 4098,000; 2564,000; 3828,000;121,36076
1901,40; 3857,000; 2344,000; 3603,000;120,17474

