114_PET_FCR_2
Integration time [ms]: 100,000
Averaging Nr. [scans]: 1
Smoothing Nr. [pixels]: 0
Data measured with spectrometer [name]: 1204091U1
Wave   ;Sample   ;Dark     ;Reference;Reflectance
[nm]   ;[counts] ;[counts] ;[counts] ;[%]

1014,48; 8481,000; 2453,000; 7571,000;117,78038
1019,01; 8991,000; 2571,000; 8072,000;116,70605
1023,54; 9498,000; 2760,000; 8557,000;116,23253
1028,07; 9711,000; 2645,000; 8728,000;116,15979
1032,59; 9962,000; 2542,000; 8976,000;115,32484
1037,10;10452,000; 2552,000; 9493,000;113,81645
1041,62;10871,000; 2645,000; 9874,000;113,79167
1046,12;11709,000; 3172,000;10692,000;113,52394
1050,62;11453,000; 2658,000;10426,000;113,22091
1055,12;11571,000; 2509,000;10544,000;112,78158
1059,62;11596,000; 2352,000;10536,000;112,95210
1064,10;12283,000; 2726,000;11217,000;112,55447
1068,59;12700,000; 2932,000;11644,000;112,12121
1073,07;12852,000; 2693,000;11791,000;111,66190
1077,54;13009,000; 2612,000;11902,000;111,91604
1082,01;13466,000; 2824,000;12356,000;111,64499
1086,48;13747,000; 2801,000;12632,000;111,34167
1090,94;13494,000; 2380,000;12314,000;111,87840
1095,39;14828,000; 3344,000;13669,000;111,22518
1099,85;14490,000; 2612,000;13309,000;111,04048
1104,29;14847,000; 2682,000;13632,000;111,09589
1108,73;14697,000; 2312,000;13510,000;110,60011
1113,17;15515,000; 3042,000;14359,000;110,21472
1117,61;15298,000; 2646,000;14198,000;109,52216
1122,03;15825,000; 3046,000;14722,000;109,44673
1126,46;15433,000; 2527,000;14400,000;108,70041
1130,88;15542,000; 2466,000;14495,000;108,70397
1135,29;16333,000; 3111,000;15219,000;109,20053
1139,70;15947,000; 2407,000;14793,000;109,31697
1144,11;16172,000; 2489,000;14967,000;109,65700
1148,51;16322,000; 2565,000;15172,000;109,12192
1152,90;16467,000; 2579,000;15293,000;109,23392
1157,29;16234,000; 2339,000;15111,000;108,79267
1161,68;16605,000; 2547,000;15452,000;108,93452
1166,06;16520,000; 2534,000;15403,000;108,67977
1170,44;16611,000; 2810,000;15520,000;108,58379
1174,81;16017,000; 2521,000;14948,000;108,60224
1179,18;16149,000; 2667,000;15071,000;108,69074
1183,54;16256,000; 2847,000;15116,000;109,29171
1187,90;16228,000; 2891,000;15091,000;109,31967
1192,25;15841,000; 2667,000;14694,000;109,53688
1196,60;15594,000; 2522,000;14434,000;109,73808
1200,94;15710,000; 2733,000;14497,000;110,31112
1205,28;15298,000; 2575,000;14032,000;111,05001
1209,62;15374,000; 2673,000;14073,000;111,41228
1213,95;15390,000; 2827,000;14061,000;111,83016
1218,27;14891,000; 2397,000;13503,000;112,49775
1222,59;15165,000; 3050,000;13756,000;113,16084
1226,91;14923,000; 2791,000;13486,000;113,43619
1231,22;14495,000; 2566,000;13022,000;114,08761
1235,52;13981,000; 2255,000;12518,000;114,25509
1239,82;14265,000; 2660,000;12731,000;115,23185
1244,12;13828,000; 2513,000;12276,000;115,89675
1248,41;13983,000; 2839,000;12479,000;115,60166
1252,70;13069,000; 2157,000;11531,000;116,40708
1256,98;13388,000; 2405,000;11723,000;117,86864
1261,26;13768,000; 2898,000;12129,000;117,75539
1265,53;12930,000; 2242,000;11284,000;118,20394
1269,80;13119,000; 2393,000;11431,000;118,67670
1274,06;13374,000; 2810,000;11639,000;119,65115
1278,32;13024,000; 2550,000;11295,000;119,77130
1282,57;13010,000; 2625,000;11256,000;120,32209
1286,82;12815,000; 2467,000;11002,000;121,24194
1291,06;12985,000; 2738,000;11125,000;122,17718
1295,30;12925,000; 2653,000;11013,000;122,87081
1299,53;13092,000; 2787,000;11181,000;122,76626
1303,76;12935,000; 2600,000;10932,000;124,03985
1307,99;13283,000; 2905,000;11203,000;125,06628
1312,20;13090,000; 2833,000;11044,000;124,91779
1316,42;12468,000; 2476,000;10478,000;124,86878
1320,63;12430,000; 2579,000;10484,000;124,61733
1324,83;11847,000; 2192,000; 9974,000;124,06836
1329,03;12139,000; 2674,000;10257,000;124,81867
1333,23;11817,000; 2468,000; 9986,000;124,35488
1337,42;12092,000; 2764,000;10213,000;125,22486
1341,60;11497,000; 2379,000; 9662,000;125,19566
1345,78;11671,000; 2742,000; 9883,000;125,03851
1349,96;11079,000; 2303,000; 9376,000;124,07748
1354,13;11208,000; 2510,000; 9449,000;125,34947
1358,29;10976,000; 2356,000; 9196,000;126,02339
1362,46;11076,000; 2743,000; 9351,000;126,10472
1366,61;10921,000; 2731,000; 9181,000;126,97674
1370,76;10453,000; 2399,000; 8708,000;127,65890
1374,91;10758,000; 2995,000; 9036,000;128,50521
1379,05; 9806,000; 2366,000; 8178,000;128,01101
1383,18;10566,000; 3283,000; 9009,000;127,19176
1387,32; 9656,000; 2319,000; 8098,000;126,95968
1391,44; 9716,000; 2327,000; 8096,000;128,08112
1395,56;10529,000; 3137,000; 8942,000;127,33850
1399,68; 9637,000; 2135,000; 8073,000;126,33883
1403,79; 9905,000; 2329,000; 8366,000;125,49279
1407,90; 9716,000; 2263,000; 8269,000;124,09257
1412,00; 9874,000; 2365,000; 8420,000;124,01321
1416,10;10182,000; 2718,000; 8761,000;123,51481
1420,19; 9792,000; 2409,000; 8400,000;123,23485
1424,27; 9960,000; 2632,000; 8589,000;123,01494
1428,36;10028,000; 2719,000; 8620,000;123,86036
1432,43; 9997,000; 2846,000; 8708,000;121,98908
1436,50; 9669,000; 2533,000; 8354,000;122,59062
1440,57; 9824,000; 2732,000; 8530,000;122,31804
1444,63; 9414,000; 2366,000; 8116,000;122,57391
1448,69; 9124,000; 2161,000; 7844,000;122,52332
1452,74; 9348,000; 2447,000; 8116,000;121,73223
1456,79; 9138,000; 2238,000; 7867,000;122,57950
1460,83; 9194,000; 2400,000; 7935,000;122,74616
1464,87; 9421,000; 2691,000; 8180,000;122,60885
1468,90; 9456,000; 2650,000; 8132,000;124,15177
1472,93; 9312,000; 2603,000; 7978,000;124,81860
1476,95; 9337,000; 2611,000; 7981,000;125,25140
1480,96; 8993,000; 2298,000; 7601,000;126,24929
1484,98; 9108,000; 2481,000; 7828,000;123,93866
1488,98; 9114,000; 2611,000; 7844,000;124,26906
1492,98; 9218,000; 2725,000; 7881,000;125,93095
1496,98; 8710,000; 2361,000; 7476,000;124,12512
1500,97; 9116,000; 2789,000; 7826,000;125,61048
1504,96; 8516,000; 2172,000; 7164,000;127,08333
1508,94; 9071,000; 2773,000; 7774,000;125,93481
1512,92; 8597,000; 2382,000; 7342,000;125,30242
1516,89; 8797,000; 2502,000; 7430,000;127,73945
1520,85; 8590,000; 2384,000; 7295,000;126,36937
1524,81; 9174,000; 2962,000; 7824,000;127,76635
1528,77; 8503,000; 2324,000; 7205,000;126,59291
1532,72; 8552,000; 2407,000; 7255,000;126,75330
1536,67; 8958,000; 2883,000; 7677,000;126,72090
1540,61; 8303,000; 2376,000; 7009,000;127,93007
1544,54; 8659,000; 2727,000; 7388,000;127,26883
1548,47; 7981,000; 2158,000; 6748,000;126,86275
1552,40; 8410,000; 2615,000; 7147,000;127,86849
1556,32; 8365,000; 2575,000; 7088,000;128,29603
1560,23; 8077,000; 2484,000; 6850,000;128,10353
1564,15; 8239,000; 2555,000; 6922,000;130,15800
1568,05; 8014,000; 2399,000; 6734,000;129,52710
1571,95; 8215,000; 2725,000; 6961,000;129,60340
1575,84; 7832,000; 2347,000; 6574,000;129,76106
1579,73; 8064,000; 2624,000; 6795,000;130,42436
1583,62; 7989,000; 2543,000; 6679,000;131,67311
1587,50; 7637,000; 2249,000; 6365,000;130,90379
1591,37; 8157,000; 2806,000; 6870,000;131,66831
1595,24; 7774,000; 2531,000; 6521,000;131,40351
1599,11; 7430,000; 2244,000; 6219,000;130,46541
1602,96; 7458,000; 2333,000; 6225,000;131,68037
1606,82; 7262,000; 2230,000; 6074,000;130,90531
1610,67; 7452,000; 2503,000; 6261,000;131,69239
1614,51; 7545,000; 2689,000; 6400,000;130,85422
1618,35; 7045,000; 2276,000; 5907,000;131,34123
1622,18; 7135,000; 2494,000; 6062,000;130,07287
1626,01; 7095,000; 2495,000; 6059,000;129,06846
1629,83; 7128,000; 2571,000; 6064,000;130,46092
1633,65; 7172,000; 2670,000; 6118,000;130,56845
1637,46; 6774,000; 2400,000; 5785,000;129,21713
1641,27; 6613,000; 2327,000; 5711,000;126,65485
1645,07; 6479,000; 2289,000; 5633,000;125,29904
1648,86; 6346,000; 2319,000; 5590,000;123,11220
1652,66; 6320,000; 2259,000; 5557,000;123,13523
1656,44; 6305,000; 2366,000; 5600,000;121,79963
1660,22; 6432,000; 2535,000; 5719,000;122,39322
1664,00; 6565,000; 2684,000; 5850,000;122,58370
1667,77; 6277,000; 2449,000; 5553,000;123,32474
1671,53; 6246,000; 2433,000; 5436,000;126,97303
1675,29; 6090,000; 2285,000; 5318,000;125,45335
1679,05; 6400,000; 2563,000; 5561,000;127,98532
1682,80; 6248,000; 2442,000; 5389,000;129,14829
1686,54; 6468,000; 2708,000; 5604,000;129,83425
1690,28; 6323,000; 2658,000; 5556,000;126,46653
1694,01; 5901,000; 2248,000; 5057,000;130,04628
1697,74; 6036,000; 2391,000; 5182,000;130,59835
1701,46; 6172,000; 2601,000; 5350,000;129,90178
1705,18; 5840,000; 2310,000; 4996,000;131,42219
1708,89; 5665,000; 2233,000; 4884,000;129,46058
1712,60; 6058,000; 2612,000; 5224,000;131,92956
1716,30; 6008,000; 2623,000; 5179,000;132,43349
1720,00; 6062,000; 2660,000; 5201,000;133,88430
1723,69; 5922,000; 2563,000; 5072,000;133,87804
1727,38; 5560,000; 2204,000; 4712,000;133,81180
1731,06; 5835,000; 2496,000; 4968,000;135,07282
1734,73; 5758,000; 2459,000; 4917,000;134,21481
1738,40; 5625,000; 2292,000; 4734,000;136,48649
1742,07; 6001,000; 2663,000; 5138,000;134,86869
1745,73; 5610,000; 2312,000; 4760,000;134,72222
1749,38; 5887,000; 2592,000; 5014,000;136,04459
1753,03; 5913,000; 2685,000; 5008,000;138,95824
1756,67; 5672,000; 2466,000; 4783,000;138,36858
1760,31; 5766,000; 2637,000; 4863,000;140,56604
1763,94; 5617,000; 2564,000; 4778,000;137,89521
1767,57; 5601,000; 2562,000; 4713,000;141,28312
1771,19; 5412,000; 2442,000; 4522,000;142,78846
1774,81; 5534,000; 2565,000; 4651,000;142,32982
1778,42; 5483,000; 2584,000; 4617,000;142,59715
1782,03; 5320,000; 2412,000; 4445,000;143,03984
1785,63; 5174,000; 2341,000; 4330,000;142,43338
1789,22; 5262,000; 2405,000; 4385,000;144,29293
1792,81; 5065,000; 2278,000; 4185,000;146,14578
1796,40; 5019,000; 2182,000; 4076,000;149,78881
1799,98; 5556,000; 2714,000; 4598,000;150,84926
1803,55; 5263,000; 2460,000; 4327,000;150,13390
1807,12; 4991,000; 2348,000; 4172,000;144,90132
1810,68; 5666,000; 2987,000; 4794,000;148,25678
1814,24; 4891,000; 2255,000; 4030,000;148,50704
1817,79; 5394,000; 2759,000; 4513,000;150,22805
1821,34; 5457,000; 2932,000; 4641,000;147,74722
1824,88; 4903,000; 2324,000; 4030,000;151,17233
1828,41; 5133,000; 2587,000; 4283,000;150,11792
1831,94; 4935,000; 2421,000; 4081,000;151,44578
1835,47; 4705,000; 2217,000; 3864,000;151,06254
1838,99; 5062,000; 2598,000; 4226,000;151,35135
1842,50; 4883,000; 2418,000; 4025,000;153,39141
1846,01; 4782,000; 2307,000; 3885,000;156,84411
1849,51; 4553,000; 2156,000; 3694,000;155,85176
1853,01; 4620,000; 2262,000; 3774,000;155,95238
1856,50; 5377,000; 3049,000; 4559,000;154,17219
1859,99; 4495,000; 2201,000; 3668,000;156,37355
1863,47; 4775,000; 2547,000; 3994,000;153,97374
1866,94; 4506,000; 2314,000; 3711,000;156,90766
1870,41; 4942,000; 2737,000; 4119,000;159,55137
1873,88; 4698,000; 2520,000; 3897,000;158,16993
1877,34; 5001,000; 2792,000; 4172,000;160,07246
1880,79; 4837,000; 2713,000; 4037,000;160,42296
1884,24; 4771,000; 2665,000; 3995,000;158,34586
1887,68; 4393,000; 2302,000; 3591,000;162,21877
1891,12; 4275,000; 2172,000; 3462,000;163,02326
1894,55; 4334,000; 2296,000; 3582,000;158,47589
1897,98; 4544,000; 2564,000; 3828,000;156,64557
1901,40; 4295,000; 2344,000; 3603,000;154,96426

