216_HDPE_FCR_1
Integration time [ms]: 100,000
Averaging Nr. [scans]: 1
Smoothing Nr. [pixels]: 0
Data measured with spectrometer [name]: 1204091U1
Wave   ;Sample   ;Dark     ;Reference;Reflectance
[nm]   ;[counts] ;[counts] ;[counts] ;[%]

1014,48; 6300,000; 2453,000; 7571,000;75,16608
1019,01; 6671,000; 2571,000; 8072,000;74,53190
1023,54; 7065,000; 2760,000; 8557,000;74,26255
1028,07; 7165,000; 2645,000; 8728,000;74,30544
1032,59; 7301,000; 2542,000; 8976,000;73,96643
1037,10; 7638,000; 2552,000; 9493,000;73,27474
1041,62; 7945,000; 2645,000; 9874,000;73,31581
1046,12; 8682,000; 3172,000;10692,000;73,27128
1050,62; 8342,000; 2658,000;10426,000;73,17199
1055,12; 8388,000; 2509,000;10544,000;73,16739
1059,62; 8367,000; 2352,000;10536,000;73,49707
1064,10; 8976,000; 2726,000;11217,000;73,60735
1068,59; 9373,000; 2932,000;11644,000;73,93251
1073,07; 9427,000; 2693,000;11791,000;74,01627
1077,54; 9496,000; 2612,000;11902,000;74,10118
1082,01; 9879,000; 2824,000;12356,000;74,01385
1086,48;10106,000; 2801,000;12632,000;74,30577
1090,94; 9774,000; 2380,000;12314,000;74,43125
1095,39;11039,000; 3344,000;13669,000;74,52785
1099,85;10588,000; 2612,000;13309,000;74,56296
1104,29;10877,000; 2682,000;13632,000;74,84018
1108,73;10687,000; 2312,000;13510,000;74,79014
1113,17;11521,000; 3042,000;14359,000;74,92268
1117,61;11287,000; 2646,000;14198,000;74,80090
1122,03;11820,000; 3046,000;14722,000;75,14560
1126,46;11434,000; 2527,000;14400,000;75,01895
1130,88;11477,000; 2466,000;14495,000;74,91063
1135,29;12156,000; 3111,000;15219,000;74,70268
1139,70;11639,000; 2407,000;14793,000;74,53577
1144,11;11728,000; 2489,000;14967,000;74,04231
1148,51;11791,000; 2565,000;15172,000;73,18157
1152,90;11874,000; 2579,000;15293,000;73,10838
1157,29;11498,000; 2339,000;15111,000;71,71156
1161,68;11673,000; 2547,000;15452,000;70,71678
1166,06;11486,000; 2534,000;15403,000;69,56251
1170,44;11591,000; 2810,000;15520,000;69,08733
1174,81;11067,000; 2521,000;14948,000;68,76961
1179,18;11069,000; 2667,000;15071,000;67,73621
1183,54;10974,000; 2847,000;15116,000;66,24012
1187,90;10805,000; 2891,000;15091,000;64,86885
1192,25;10315,000; 2667,000;14694,000;63,59026
1196,60; 9801,000; 2522,000;14434,000;61,10645
1200,94; 9584,000; 2733,000;14497,000;58,23699
1205,28; 8919,000; 2575,000;14032,000;55,37226
1209,62; 8766,000; 2673,000;14073,000;53,44737
1213,95; 8781,000; 2827,000;14061,000;52,99982
1218,27; 8456,000; 2397,000;13503,000;54,55610
1222,59; 9280,000; 3050,000;13756,000;58,19167
1226,91; 9465,000; 2791,000;13486,000;62,40299
1231,22; 9431,000; 2566,000;13022,000;65,65608
1235,52; 9250,000; 2255,000;12518,000;68,15746
1239,82; 9722,000; 2660,000;12731,000;70,12213
1244,12; 9488,000; 2513,000;12276,000;71,44320
1248,41; 9842,000; 2839,000;12479,000;72,64523
1252,70; 9033,000; 2157,000;11531,000;73,35182
1256,98; 9313,000; 2405,000;11723,000;74,13608
1261,26; 9795,000; 2898,000;12129,000;74,71563
1265,53; 9014,000; 2242,000;11284,000;74,89493
1269,80; 9193,000; 2393,000;11431,000;75,23788
1274,06; 9508,000; 2810,000;11639,000;75,86363
1278,32; 9230,000; 2550,000;11295,000;76,38651
1282,57; 9241,000; 2625,000;11256,000;76,65392
1286,82; 9041,000; 2467,000;11002,000;77,02402
1291,06; 9212,000; 2738,000;11125,000;77,19089
1295,30; 9134,000; 2653,000;11013,000;77,52392
1299,53; 9307,000; 2787,000;11181,000;77,67453
1303,76; 9088,000; 2600,000;10932,000;77,86846
1307,99; 9394,000; 2905,000;11203,000;78,19957
1312,20; 9252,000; 2833,000;11044,000;78,17562
1316,42; 8741,000; 2476,000;10478,000;78,29293
1320,63; 8771,000; 2579,000;10484,000;78,33017
1324,83; 8304,000; 2192,000; 9974,000;78,54022
1329,03; 8641,000; 2674,000;10257,000;78,68917
1333,23; 8372,000; 2468,000; 9986,000;78,53152
1337,42; 8628,000; 2764,000;10213,000;78,72198
1341,60; 8111,000; 2379,000; 9662,000;78,70383
1345,78; 8364,000; 2742,000; 9883,000;78,72847
1349,96; 7850,000; 2303,000; 9376,000;78,42500
1354,13; 7986,000; 2510,000; 9449,000;78,91627
1358,29; 7748,000; 2356,000; 9196,000;78,83041
1362,46; 7919,000; 2743,000; 9351,000;78,32930
1366,61; 7716,000; 2731,000; 9181,000;77,28682
1370,76; 7251,000; 2399,000; 8708,000;76,90601
1374,91; 7559,000; 2995,000; 9036,000;75,55041
1379,05; 6670,000; 2366,000; 8178,000;74,05368
1383,18; 7417,000; 3283,000; 9009,000;72,19700
1387,32; 6368,000; 2319,000; 8098,000;70,06402
1391,44; 6213,000; 2327,000; 8096,000;67,36003
1395,56; 7059,000; 3137,000; 8942,000;67,56245
1399,68; 6259,000; 2135,000; 8073,000;69,45099
1403,79; 6528,000; 2329,000; 8366,000;69,55441
1407,90; 6386,000; 2263,000; 8269,000;68,64802
1412,00; 6450,000; 2365,000; 8420,000;67,46491
1416,10; 6731,000; 2718,000; 8761,000;66,40741
1420,19; 6431,000; 2409,000; 8400,000;67,13403
1424,27; 6656,000; 2632,000; 8589,000;67,55078
1428,36; 6739,000; 2719,000; 8620,000;68,12405
1432,43; 6873,000; 2846,000; 8708,000;68,69669
1436,50; 6583,000; 2533,000; 8354,000;69,57567
1440,57; 6777,000; 2732,000; 8530,000;69,76544
1444,63; 6470,000; 2366,000; 8116,000;71,37391
1448,69; 6279,000; 2161,000; 7844,000;72,46173
1452,74; 6598,000; 2447,000; 8116,000;73,22279
1456,79; 6393,000; 2238,000; 7867,000;73,81418
1460,83; 6552,000; 2400,000; 7935,000;75,01355
1464,87; 6859,000; 2691,000; 8180,000;75,93369
1468,90; 6873,000; 2650,000; 8132,000;77,03393
1472,93; 6793,000; 2603,000; 7978,000;77,95349
1476,95; 6820,000; 2611,000; 7981,000;78,37989
1480,96; 6516,000; 2298,000; 7601,000;79,53988
1484,98; 6717,000; 2481,000; 7828,000;79,22199
1488,98; 6756,000; 2611,000; 7844,000;79,20887
1492,98; 6818,000; 2725,000; 7881,000;79,38324
1496,98; 6426,000; 2361,000; 7476,000;79,47214
1500,97; 6818,000; 2789,000; 7826,000;79,98809
1504,96; 6188,000; 2172,000; 7164,000;80,44872
1508,94; 6790,000; 2773,000; 7774,000;80,32394
1512,92; 6341,000; 2382,000; 7342,000;79,81855
1516,89; 6443,000; 2502,000; 7430,000;79,97159
1520,85; 6317,000; 2384,000; 7295,000;80,08552
1524,81; 6836,000; 2962,000; 7824,000;79,67914
1528,77; 6209,000; 2324,000; 7205,000;79,59435
1532,72; 6276,000; 2407,000; 7255,000;79,80611
1536,67; 6715,000; 2883,000; 7677,000;79,93325
1540,61; 6100,000; 2376,000; 7009,000;80,37988
1544,54; 6496,000; 2727,000; 7388,000;80,86248
1548,47; 5924,000; 2158,000; 6748,000;82,04793
1552,40; 6350,000; 2615,000; 7147,000;82,41395
1556,32; 6335,000; 2575,000; 7088,000;83,31487
1560,23; 6134,000; 2484,000; 6850,000;83,60055
1564,15; 6212,000; 2555,000; 6922,000;83,74170
1568,05; 6030,000; 2399,000; 6734,000;83,76009
1571,95; 6279,000; 2725,000; 6961,000;83,89991
1575,84; 5895,000; 2347,000; 6574,000;83,93660
1579,73; 6137,000; 2624,000; 6795,000;84,22441
1583,62; 6008,000; 2543,000; 6679,000;83,77660
1587,50; 5701,000; 2249,000; 6365,000;83,86783
1591,37; 6221,000; 2806,000; 6870,000;84,03051
1595,24; 5879,000; 2531,000; 6521,000;83,90977
1599,11; 5572,000; 2244,000; 6219,000;83,72327
1602,96; 5616,000; 2333,000; 6225,000;84,35252
1606,82; 5468,000; 2230,000; 6074,000;84,23517
1610,67; 5658,000; 2503,000; 6261,000;83,95423
1614,51; 5817,000; 2689,000; 6400,000;84,28995
1618,35; 5334,000; 2276,000; 5907,000;84,21922
1622,18; 5552,000; 2494,000; 6062,000;85,70628
1626,01; 5526,000; 2495,000; 6059,000;85,04489
1629,83; 5539,000; 2571,000; 6064,000;84,96994
1633,65; 5612,000; 2670,000; 6118,000;85,32483
1637,46; 5281,000; 2400,000; 5785,000;85,11078
1641,27; 5212,000; 2327,000; 5711,000;85,25414
1645,07; 5149,000; 2289,000; 5633,000;85,52632
1648,86; 5077,000; 2319,000; 5590,000;84,31672
1652,66; 5026,000; 2259,000; 5557,000;83,89933
1656,44; 5070,000; 2366,000; 5600,000;83,61163
1660,22; 5180,000; 2535,000; 5719,000;83,07161
1664,00; 5280,000; 2684,000; 5850,000;81,99621
1667,77; 4980,000; 2449,000; 5553,000;81,53995
1671,53; 4837,000; 2433,000; 5436,000;80,05328
1675,29; 4687,000; 2285,000; 5318,000;79,19552
1679,05; 4900,000; 2563,000; 5561,000;77,95197
1682,80; 4690,000; 2442,000; 5389,000;76,28096
1686,54; 4886,000; 2708,000; 5604,000;75,20718
1690,28; 4776,000; 2658,000; 5556,000;73,08489
1694,01; 4269,000; 2248,000; 5057,000;71,94731
1697,74; 4310,000; 2391,000; 5182,000;68,75672
1701,46; 4373,000; 2601,000; 5350,000;64,45980
1705,18; 3937,000; 2310,000; 4996,000;60,57334
1708,89; 3660,000; 2233,000; 4884,000;53,82874
1712,60; 3906,000; 2612,000; 5224,000;49,54058
1716,30; 3811,000; 2623,000; 5179,000;46,47887
1720,00; 3768,000; 2660,000; 5201,000;43,60488
1723,69; 3608,000; 2563,000; 5072,000;41,65006
1727,38; 3206,000; 2204,000; 4712,000;39,95215
1731,06; 3495,000; 2496,000; 4968,000;40,41262
1734,73; 3509,000; 2459,000; 4917,000;42,71766
1738,40; 3448,000; 2292,000; 4734,000;47,33825
1742,07; 3922,000; 2663,000; 5138,000;50,86869
1745,73; 3613,000; 2312,000; 4760,000;53,14542
1749,38; 3929,000; 2592,000; 5014,000;55,20231
1753,03; 3978,000; 2685,000; 5008,000;55,66078
1756,67; 3708,000; 2466,000; 4783,000;53,60380
1760,31; 3775,000; 2637,000; 4863,000;51,12309
1763,94; 3664,000; 2564,000; 4778,000;49,68383
1767,57; 3666,000; 2562,000; 4713,000;51,32497
1771,19; 3619,000; 2442,000; 4522,000;56,58654
1774,81; 3824,000; 2565,000; 4651,000;60,35475
1778,42; 3823,000; 2584,000; 4617,000;60,94442
1782,03; 3682,000; 2412,000; 4445,000;62,46926
1785,63; 3631,000; 2341,000; 4330,000;64,85671
1789,22; 3697,000; 2405,000; 4385,000;65,25253
1792,81; 3524,000; 2278,000; 4185,000;65,33823
1796,40; 3413,000; 2182,000; 4076,000;64,99472
1799,98; 3943,000; 2714,000; 4598,000;65,23355
1803,55; 3681,000; 2460,000; 4327,000;65,39904
1807,12; 3538,000; 2348,000; 4172,000;65,24123
1810,68; 4156,000; 2987,000; 4794,000;64,69286
1814,24; 3406,000; 2255,000; 4030,000;64,84507
1817,79; 3869,000; 2759,000; 4513,000;63,28392
1821,34; 4062,000; 2932,000; 4641,000;66,12054
1824,88; 3447,000; 2324,000; 4030,000;65,82649
1828,41; 3702,000; 2587,000; 4283,000;65,74292
1831,94; 3535,000; 2421,000; 4081,000;67,10843
1835,47; 3302,000; 2217,000; 3864,000;65,87735
1838,99; 3697,000; 2598,000; 4226,000;67,50614
1842,50; 3521,000; 2418,000; 4025,000;68,63721
1846,01; 3405,000; 2307,000; 3885,000;69,58175
1849,51; 3211,000; 2156,000; 3694,000;68,59558
1853,01; 3355,000; 2262,000; 3774,000;72,28836
1856,50; 4166,000; 3049,000; 4559,000;73,97351
1859,99; 3270,000; 2201,000; 3668,000;72,86980
1863,47; 3628,000; 2547,000; 3994,000;74,70629
1866,94; 3377,000; 2314,000; 3711,000;76,09162
1870,41; 3821,000; 2737,000; 4119,000;78,43705
1873,88; 3605,000; 2520,000; 3897,000;78,79448
1877,34; 3873,000; 2792,000; 4172,000;78,33333
1880,79; 3766,000; 2713,000; 4037,000;79,53172
1884,24; 3732,000; 2665,000; 3995,000;80,22556
1887,68; 3336,000; 2302,000; 3591,000;80,21722
1891,12; 3204,000; 2172,000; 3462,000;80,00000
1894,55; 3344,000; 2296,000; 3582,000;81,49300
1897,98; 3589,000; 2564,000; 3828,000;81,09177
1901,40; 3350,000; 2344,000; 3603,000;79,90469

