306_PS_FCR_2
Integration time [ms]: 100,000
Averaging Nr. [scans]: 1
Smoothing Nr. [pixels]: 0
Data measured with spectrometer [name]: 1204091U1
Wave   ;Sample   ;Dark     ;Reference;Reflectance
[nm]   ;[counts] ;[counts] ;[counts] ;[%]

1014,48; 9516,000; 2453,000; 7571,000;138,00313
1019,01;10088,000; 2571,000; 8072,000;136,64788
1023,54;10673,000; 2760,000; 8557,000;136,50164
1028,07;10920,000; 2645,000; 8728,000;136,03485
1032,59;11252,000; 2542,000; 8976,000;135,37457
1037,10;11826,000; 2552,000; 9493,000;133,61187
1041,62;12282,000; 2645,000; 9874,000;133,31028
1046,12;13182,000; 3172,000;10692,000;133,11170
1050,62;12956,000; 2658,000;10426,000;132,56952
1055,12;13124,000; 2509,000;10544,000;132,10952
1059,62;13181,000; 2352,000;10536,000;132,31916
1064,10;13971,000; 2726,000;11217,000;132,43434
1068,59;14451,000; 2932,000;11644,000;132,21993
1073,07;14686,000; 2693,000;11791,000;131,82018
1077,54;14874,000; 2612,000;11902,000;131,99139
1082,01;15384,000; 2824,000;12356,000;131,76668
1086,48;15741,000; 2801,000;12632,000;131,62445
1090,94;15525,000; 2380,000;12314,000;132,32333
1095,39;16919,000; 3344,000;13669,000;131,47700
1099,85;16635,000; 2612,000;13309,000;131,09283
1104,29;16998,000; 2682,000;13632,000;130,73973
1108,73;16858,000; 2312,000;13510,000;129,89820
1113,17;17648,000; 3042,000;14359,000;129,06247
1117,61;17395,000; 2646,000;14198,000;127,67486
1122,03;17735,000; 3046,000;14722,000;125,80507
1126,46;17151,000; 2527,000;14400,000;123,17022
1130,88;16895,000; 2466,000;14495,000;119,95178
1135,29;17188,000; 3111,000;15219,000;116,26198
1139,70;16441,000; 2407,000;14793,000;113,30534
1144,11;16521,000; 2489,000;14967,000;112,45392
1148,51;16917,000; 2565,000;15172,000;113,84152
1152,90;17485,000; 2579,000;15293,000;117,24084
1157,29;17696,000; 2339,000;15111,000;120,23959
1161,68;18340,000; 2547,000;15452,000;122,37892
1166,06;18400,000; 2534,000;15403,000;123,28852
1170,44;18576,000; 2810,000;15520,000;124,04406
1174,81;17966,000; 2521,000;14948,000;124,28583
1179,18;18100,000; 2667,000;15071,000;124,41954
1183,54;18060,000; 2847,000;15116,000;123,99544
1187,90;17908,000; 2891,000;15091,000;123,09016
1192,25;17364,000; 2667,000;14694,000;122,20005
1196,60;16985,000; 2522,000;14434,000;121,41538
1200,94;16960,000; 2733,000;14497,000;120,93676
1205,28;16458,000; 2575,000;14032,000;121,17483
1209,62;16528,000; 2673,000;14073,000;121,53509
1213,95;16618,000; 2827,000;14061,000;122,76126
1218,27;16230,000; 2397,000;13503,000;124,55429
1222,59;16560,000; 3050,000;13756,000;126,19092
1226,91;16403,000; 2791,000;13486,000;127,27443
1231,22;16020,000; 2566,000;13022,000;128,67253
1235,52;15529,000; 2255,000;12518,000;129,33840
1239,82;15813,000; 2660,000;12731,000;130,60272
1244,12;15358,000; 2513,000;12276,000;131,56817
1248,41;15575,000; 2839,000;12479,000;132,11618
1252,70;14646,000; 2157,000;11531,000;133,23021
1256,98;14866,000; 2405,000;11723,000;133,73041
1261,26;15246,000; 2898,000;12129,000;133,76666
1265,53;14419,000; 2242,000;11284,000;134,67153
1269,80;14585,000; 2393,000;11431,000;134,89710
1274,06;14787,000; 2810,000;11639,000;135,65523
1278,32;14435,000; 2550,000;11295,000;135,90623
1282,57;14425,000; 2625,000;11256,000;136,71649
1286,82;14159,000; 2467,000;11002,000;136,98887
1291,06;14238,000; 2738,000;11125,000;137,11697
1295,30;14171,000; 2653,000;11013,000;137,77512
1299,53;14361,000; 2787,000;11181,000;137,88420
1303,76;14094,000; 2600,000;10932,000;137,95007
1307,99;14373,000; 2905,000;11203,000;138,20198
1312,20;14127,000; 2833,000;11044,000;137,54719
1316,42;13491,000; 2476,000;10478,000;137,65309
1320,63;13466,000; 2579,000;10484,000;137,72296
1324,83;12901,000; 2192,000; 9974,000;137,61244
1329,03;13102,000; 2674,000;10257,000;137,51813
1333,23;12801,000; 2468,000; 9986,000;137,44347
1337,42;12981,000; 2764,000;10213,000;137,15935
1341,60;12389,000; 2379,000; 9662,000;137,44336
1345,78;12528,000; 2742,000; 9883,000;137,03963
1349,96;12023,000; 2303,000; 9376,000;137,42401
1354,13;12098,000; 2510,000; 9449,000;138,17553
1358,29;11854,000; 2356,000; 9196,000;138,85965
1362,46;11908,000; 2743,000; 9351,000;138,69552
1366,61;11662,000; 2731,000; 9181,000;138,46512
1370,76;11087,000; 2399,000; 8708,000;137,70804
1374,91;11279,000; 2995,000; 9036,000;137,12961
1379,05;10391,000; 2366,000; 8178,000;138,07639
1383,18;11058,000; 3283,000; 9009,000;135,78414
1387,32;10189,000; 2319,000; 8098,000;136,18273
1391,44;10169,000; 2327,000; 8096,000;135,93344
1395,56;10975,000; 3137,000; 8942,000;135,02153
1399,68;10121,000; 2135,000; 8073,000;134,48973
1403,79;10381,000; 2329,000; 8366,000;133,37751
1407,90;10258,000; 2263,000; 8269,000;133,11688
1412,00;10408,000; 2365,000; 8420,000;132,83237
1416,10;10745,000; 2718,000; 8761,000;132,83138
1420,19;10402,000; 2409,000; 8400,000;133,41679
1424,27;10604,000; 2632,000; 8589,000;133,82575
1428,36;10655,000; 2719,000; 8620,000;134,48568
1432,43;10676,000; 2846,000; 8708,000;133,57216
1436,50;10346,000; 2533,000; 8354,000;134,22092
1440,57;10513,000; 2732,000; 8530,000;134,20145
1444,63;10120,000; 2366,000; 8116,000;134,85217
1448,69; 9889,000; 2161,000; 7844,000;135,98452
1452,74;10148,000; 2447,000; 8116,000;135,84406
1456,79; 9887,000; 2238,000; 7867,000;135,88559
1460,83; 9978,000; 2400,000; 7935,000;136,91057
1464,87;10136,000; 2691,000; 8180,000;135,63491
1468,90;10150,000; 2650,000; 8132,000;136,81138
1472,93;10038,000; 2603,000; 7978,000;138,32558
1476,95;10037,000; 2611,000; 7981,000;138,28678
1480,96; 9701,000; 2298,000; 7601,000;139,60023
1484,98; 9858,000; 2481,000; 7828,000;137,96521
1488,98; 9879,000; 2611,000; 7844,000;138,88783
1492,98; 9863,000; 2725,000; 7881,000;138,44065
1496,98; 9446,000; 2361,000; 7476,000;138,51417
1500,97; 9810,000; 2789,000; 7826,000;139,38852
1504,96; 9151,000; 2172,000; 7164,000;139,80369
1508,94; 9735,000; 2773,000; 7774,000;139,21216
1512,92; 9267,000; 2382,000; 7342,000;138,81048
1516,89; 9381,000; 2502,000; 7430,000;139,59010
1520,85; 9213,000; 2384,000; 7295,000;139,05518
1524,81; 9753,000; 2962,000; 7824,000;139,67503
1528,77; 9169,000; 2324,000; 7205,000;140,23766
1532,72; 9231,000; 2407,000; 7255,000;140,75908
1536,67; 9592,000; 2883,000; 7677,000;139,94577
1540,61; 8966,000; 2376,000; 7009,000;142,24045
1544,54; 9352,000; 2727,000; 7388,000;142,13688
1548,47; 8692,000; 2158,000; 6748,000;142,35294
1552,40; 9051,000; 2615,000; 7147,000;142,01236
1556,32; 9018,000; 2575,000; 7088,000;142,76534
1560,23; 8763,000; 2484,000; 6850,000;143,81585
1564,15; 8786,000; 2555,000; 6922,000;142,68376
1568,05; 8584,000; 2399,000; 6734,000;142,67589
1571,95; 8799,000; 2725,000; 6961,000;143,38999
1575,84; 8389,000; 2347,000; 6574,000;142,93825
1579,73; 8545,000; 2624,000; 6795,000;141,95637
1583,62; 8375,000; 2543,000; 6679,000;141,00580
1587,50; 8078,000; 2249,000; 6365,000;141,61808
1591,37; 8507,000; 2806,000; 6870,000;140,28051
1595,24; 8086,000; 2531,000; 6521,000;139,22306
1599,11; 7790,000; 2244,000; 6219,000;139,52201
1602,96; 7809,000; 2333,000; 6225,000;140,69887
1606,82; 7597,000; 2230,000; 6074,000;139,62019
1610,67; 7689,000; 2503,000; 6261,000;137,99894
1614,51; 7763,000; 2689,000; 6400,000;136,72864
1618,35; 7157,000; 2276,000; 5907,000;134,42578
1622,18; 7214,000; 2494,000; 6062,000;132,28700
1626,01; 7056,000; 2495,000; 6059,000;127,97419
1629,83; 6976,000; 2571,000; 6064,000;126,10936
1633,65; 6919,000; 2670,000; 6118,000;123,23086
1637,46; 6522,000; 2400,000; 5785,000;121,77253
1641,27; 6469,000; 2327,000; 5711,000;122,39953
1645,07; 6424,000; 2289,000; 5633,000;123,65431
1648,86; 6370,000; 2319,000; 5590,000;123,84592
1652,66; 6313,000; 2259,000; 5557,000;122,92298
1656,44; 6263,000; 2366,000; 5600,000;120,50093
1660,22; 6196,000; 2535,000; 5719,000;114,98116
1664,00; 6178,000; 2684,000; 5850,000;110,36008
1667,77; 5743,000; 2449,000; 5553,000;106,12113
1671,53; 5592,000; 2433,000; 5436,000;105,19481
1675,29; 5413,000; 2285,000; 5318,000;103,13221
1679,05; 5642,000; 2563,000; 5561,000;102,70180
1682,80; 5483,000; 2442,000; 5389,000;103,18968
1686,54; 5737,000; 2708,000; 5604,000;104,59254
1690,28; 5708,000; 2658,000; 5556,000;105,24500
1694,01; 5312,000; 2248,000; 5057,000;109,07796
1697,74; 5493,000; 2391,000; 5182,000;111,14296
1701,46; 5739,000; 2601,000; 5350,000;114,15060
1705,18; 5440,000; 2310,000; 4996,000;116,53016
1708,89; 5336,000; 2233,000; 4884,000;117,05017
1712,60; 5738,000; 2612,000; 5224,000;119,67841
1716,30; 5714,000; 2623,000; 5179,000;120,93114
1720,00; 5737,000; 2660,000; 5201,000;121,09406
1723,69; 5638,000; 2563,000; 5072,000;122,55879
1727,38; 5284,000; 2204,000; 4712,000;122,80702
1731,06; 5543,000; 2496,000; 4968,000;123,26052
1734,73; 5527,000; 2459,000; 4917,000;124,81692
1738,40; 5396,000; 2292,000; 4734,000;127,10893
1742,07; 5781,000; 2663,000; 5138,000;125,97980
1745,73; 5404,000; 2312,000; 4760,000;126,30719
1749,38; 5603,000; 2592,000; 5014,000;124,31874
1753,03; 5583,000; 2685,000; 5008,000;124,75248
1756,67; 5284,000; 2466,000; 4783,000;121,62279
1760,31; 5390,000; 2637,000; 4863,000;123,67475
1763,94; 5332,000; 2564,000; 4778,000;125,02258
1767,57; 5303,000; 2562,000; 4713,000;127,42910
1771,19; 5149,000; 2442,000; 4522,000;130,14423
1774,81; 5288,000; 2565,000; 4651,000;130,53691
1778,42; 5271,000; 2584,000; 4617,000;132,16921
1782,03; 5128,000; 2412,000; 4445,000;133,59567
1785,63; 4999,000; 2341,000; 4330,000;133,63499
1789,22; 5074,000; 2405,000; 4385,000;134,79798
1792,81; 4902,000; 2278,000; 4185,000;137,59832
1796,40; 4777,000; 2182,000; 4076,000;137,01162
1799,98; 5310,000; 2714,000; 4598,000;137,79193
1803,55; 5059,000; 2460,000; 4327,000;139,20728
1807,12; 4885,000; 2348,000; 4172,000;139,08991
1810,68; 5513,000; 2987,000; 4794,000;139,78971
1814,24; 4758,000; 2255,000; 4030,000;141,01408
1817,79; 5263,000; 2759,000; 4513,000;142,75941
1821,34; 5369,000; 2932,000; 4641,000;142,59801
1824,88; 4772,000; 2324,000; 4030,000;143,49355
1828,41; 4960,000; 2587,000; 4283,000;139,91745
1831,94; 4809,000; 2421,000; 4081,000;143,85542
1835,47; 4543,000; 2217,000; 3864,000;141,22647
1838,99; 4918,000; 2598,000; 4226,000;142,50614
1842,50; 4736,000; 2418,000; 4025,000;144,24393
1846,01; 4560,000; 2307,000; 3885,000;142,77567
1849,51; 4380,000; 2156,000; 3694,000;144,60338
1853,01; 4451,000; 2262,000; 3774,000;144,77513
1856,50; 5271,000; 3049,000; 4559,000;147,15232
1859,99; 4386,000; 2201,000; 3668,000;148,94342
1863,47; 4672,000; 2547,000; 3994,000;146,85556
1866,94; 4430,000; 2314,000; 3711,000;151,46743
1870,41; 4849,000; 2737,000; 4119,000;152,82200
1873,88; 4653,000; 2520,000; 3897,000;154,90196
1877,34; 4935,000; 2792,000; 4172,000;155,28986
1880,79; 4814,000; 2713,000; 4037,000;158,68580
1884,24; 4771,000; 2665,000; 3995,000;158,34586
1887,68; 4332,000; 2302,000; 3591,000;157,48642
1891,12; 4210,000; 2172,000; 3462,000;157,98450
1894,55; 4337,000; 2296,000; 3582,000;158,70918
1897,98; 4603,000; 2564,000; 3828,000;161,31329
1901,40; 4341,000; 2344,000; 3603,000;158,61795

