4mm_PMMA_FCR_3
Integration time [ms]: 100,000
Averaging Nr. [scans]: 1
Smoothing Nr. [pixels]: 0
Data measured with spectrometer [name]: 1204091U1
Wave   ;Sample   ;Dark     ;Reference;Reflectance
[nm]   ;[counts] ;[counts] ;[counts] ;[%]

1014,48;12792,000; 2159,000; 6686,000;234,87961
1019,01;13625,000; 2263,000; 7134,000;233,25806
1023,54;14398,000; 2460,000; 7582,000;233,07302
1028,07;14853,000; 2357,000; 7740,000;232,13821
1032,59;15454,000; 2222,000; 7947,000;231,12664
1037,10;16402,000; 2251,000; 8409,000;229,79864
1041,62;17116,000; 2335,000; 8775,000;229,51863
1046,12;18295,000; 2824,000; 9555,000;229,84698
1050,62;18250,000; 2300,000; 9240,000;229,82709
1055,12;18697,000; 2181,000; 9387,000;229,19789
1059,62;18949,000; 2009,000; 9358,000;230,50755
1064,10;19904,000; 2401,000;10031,000;229,39712
1068,59;20573,000; 2570,000;10411,000;229,60082
1073,07;21079,000; 2356,000;10516,000;229,44853
1077,54;21452,000; 2278,000;10631,000;229,54627
1082,01;22164,000; 2486,000;11025,000;230,44853
1086,48;22636,000; 2488,000;11325,000;227,99593
1090,94;22480,000; 2081,000;10975,000;229,35687
1095,39;24079,000; 3026,000;12290,000;227,25604
1099,85;23892,000; 2345,000;11921,000;225,01044
1104,29;24276,000; 2403,000;12226,000;222,67128
1108,73;24136,000; 2060,000;12064,000;220,67173
1113,17;24782,000; 2768,000;12897,000;217,33636
1117,61;24429,000; 2351,000;12709,000;213,14926
1122,03;24460,000; 2714,000;13178,000;207,81728
1126,46;23766,000; 2237,000;12873,000;202,41632
1130,88;23324,000; 2154,000;12946,000;196,16383
1135,29;23475,000; 2780,000;13624,000;190,84286
1139,70;22686,000; 2109,000;13204,000;185,46192
1144,11;22406,000; 2181,000;13375,000;180,67715
1148,51;22039,000; 2244,000;13522,000;175,51871
1152,90;21630,000; 2301,000;13707,000;169,46344
1157,29;20777,000; 2006,000;13470,000;163,73866
1161,68;20525,000; 2262,000;13824,000;157,95710
1166,06;20111,000; 2248,000;13803,000;154,59109
1170,44;19997,000; 2494,000;13961,000;152,63800
1174,81;19363,000; 2196,000;13387,000;153,40005
1179,18;20034,000; 2339,000;13505,000;158,47215
1183,54;20860,000; 2531,000;13570,000;166,03859
1187,90;21743,000; 2580,000;13523,000;175,11651
1192,25;22104,000; 2379,000;13172,000;182,75734
1196,60;22427,000; 2222,000;12903,000;189,16768
1200,94;23043,000; 2485,000;12994,000;195,62280
1205,28;23096,000; 2285,000;12529,000;203,15307
1209,62;23789,000; 2418,000;12639,000;209,08913
1213,95;24090,000; 2543,000;12596,000;214,33403
1218,27;23879,000; 2113,000;12057,000;218,88576
1222,59;24119,000; 2762,000;12319,000;223,46971
1226,91;23858,000; 2482,000;12036,000;223,73875
1231,22;23428,000; 2269,000;11621,000;226,25107
1235,52;22943,000; 1935,000;11126,000;228,57143
1239,82;23061,000; 2360,000;11354,000;230,16455
1244,12;22499,000; 2191,000;10953,000;231,77357
1248,41;22779,000; 2519,000;11152,000;234,68088
1252,70;21760,000; 1808,000;10246,000;236,45414
1256,98;21981,000; 2069,000;10481,000;236,70946
1261,26;22382,000; 2578,000;10887,000;238,34396
1265,53;21431,000; 1911,000;10040,000;240,12794
1269,80;21641,000; 2085,000;10196,000;241,10467
1274,06;21634,000; 2472,000;10429,000;240,81940
1278,32;21318,000; 2246,000;10116,000;242,33799
1282,57;21359,000; 2315,000;10115,000;244,15385
1286,82;20957,000; 2159,000; 9878,000;243,52895
1291,06;20964,000; 2434,000; 9974,000;245,75597
1295,30;20875,000; 2354,000; 9886,000;245,89750
1299,53;21155,000; 2461,000;10030,000;246,98111
1303,76;20849,000; 2315,000; 9771,000;248,57833
1307,99;21018,000; 2633,000;10041,000;248,17765
1312,20;20576,000; 2539,000; 9875,000;245,86968
1316,42;19785,000; 2175,000; 9339,000;245,81240
1320,63;19383,000; 2246,000; 9303,000;242,83690
1324,83;18372,000; 1875,000; 8811,000;237,84602
1329,03;17931,000; 2294,000; 9122,000;229,01289
1333,23;16796,000; 2137,000; 8853,000;218,26980
1337,42;16120,000; 2453,000; 9095,000;205,76634
1341,60;14667,000; 2063,000; 8573,000;193,60983
1345,78;14338,000; 2407,000; 8779,000;187,24105
1349,96;13597,000; 1977,000; 8295,000;183,91896
1354,13;13482,000; 2218,000; 8428,000;181,38486
1358,29;13028,000; 2040,000; 8181,000;178,92851
1362,46;12935,000; 2455,000; 8370,000;177,17667
1366,61;12499,000; 2409,000; 8197,000;174,32619
1370,76;11966,000; 2106,000; 7751,000;174,66785
1374,91;12209,000; 2653,000; 8072,000;176,34250
1379,05;11324,000; 2056,000; 7236,000;178,91892
1383,18;12133,000; 2983,000; 8057,000;180,33110
1387,32;11163,000; 2042,000; 7174,000;177,72798
1391,44;11277,000; 2029,000; 7155,000;180,41358
1395,56;12250,000; 2838,000; 7994,000;182,54461
1399,68;11662,000; 1864,000; 7116,000;186,55750
1403,79;11988,000; 2045,000; 7382,000;186,30317
1407,90;11907,000; 1975,000; 7279,000;187,25490
1412,00;12074,000; 2064,000; 7433,000;186,44068
1416,10;12311,000; 2407,000; 7775,000;184,50075
1420,19;12041,000; 2106,000; 7422,000;186,88864
1424,27;12208,000; 2292,000; 7597,000;186,91800
1428,36;12395,000; 2373,000; 7627,000;190,74990
1432,43;12619,000; 2538,000; 7760,000;193,04864
1436,50;12449,000; 2221,000; 7397,000;197,60433
1440,57;12778,000; 2379,000; 7559,000;200,75290
1444,63;12550,000; 2054,000; 7190,000;204,36137
1448,69;12701,000; 1832,000; 6909,000;214,08312
1452,74;13337,000; 2149,000; 7178,000;222,46968
1456,79;13106,000; 1924,000; 6934,000;223,19361
1460,83;13309,000; 2085,000; 7017,000;227,57502
1464,87;13549,000; 2389,000; 7273,000;228,50123
1468,90;13668,000; 2366,000; 7250,000;231,40868
1472,93;13424,000; 2274,000; 7073,000;232,34007
1476,95;13601,000; 2304,000; 7073,000;236,88404
1480,96;13258,000; 2026,000; 6740,000;238,26899
1484,98;13548,000; 2214,000; 6916,000;241,04636
1488,98;13422,000; 2321,000; 6981,000;238,21888
1492,98;13490,000; 2415,000; 6974,000;242,92608
1496,98;13086,000; 2066,000; 6594,000;243,37456
1500,97;13419,000; 2503,000; 6934,000;246,35522
1504,96;12892,000; 1869,000; 6310,000;248,20986
1508,94;13405,000; 2442,000; 6874,000;247,36011
1512,92;12961,000; 2047,000; 6459,000;247,37081
1516,89;13127,000; 2181,000; 6559,000;250,02284
1520,85;13073,000; 2039,000; 6397,000;253,18954
1524,81;13598,000; 2622,000; 6923,000;255,19647
1528,77;12858,000; 1993,000; 6335,000;250,23031
1532,72;12954,000; 2083,000; 6385,000;252,69642
1536,67;13155,000; 2574,000; 6827,000;248,78909
1540,61;12344,000; 2053,000; 6158,000;250,69428
1544,54;12727,000; 2397,000; 6559,000;248,19798
1548,47;12119,000; 1870,000; 5963,000;250,40313
1552,40;12163,000; 2311,000; 6340,000;244,52718
1556,32;12205,000; 2289,000; 6299,000;247,28180
1560,23;11794,000; 2216,000; 6063,000;248,97323
1564,15;11875,000; 2266,000; 6123,000;249,13145
1568,05;11541,000; 2111,000; 5937,000;246,47151
1571,95;11707,000; 2431,000; 6174,000;247,82260
1575,84;11372,000; 2066,000; 5767,000;251,44556
1579,73;11319,000; 2334,000; 5973,000;246,90849
1583,62;10989,000; 2251,000; 5853,000;242,58745
1587,50;10530,000; 1973,000; 5552,000;239,08913
1591,37;10925,000; 2501,000; 6051,000;237,29577
1595,24;10456,000; 2195,000; 5695,000;236,02857
1599,11;10041,000; 1935,000; 5426,000;232,19708
1602,96; 9968,000; 2027,000; 5422,000;233,90280
1606,82; 9651,000; 1926,000; 5276,000;230,59701
1610,67; 9748,000; 2202,000; 5507,000;228,32073
1614,51; 9794,000; 2375,000; 5635,000;227,57669
1618,35; 9012,000; 1955,000; 5143,000;221,36136
1622,18; 8990,000; 2163,000; 5307,000;217,14377
1626,01; 8773,000; 2191,000; 5286,000;212,66559
1629,83; 8570,000; 2237,000; 5309,000;206,15234
1633,65; 8547,000; 2363,000; 5411,000;202,88714
1637,46; 7960,000; 2065,000; 5041,000;198,08468
1641,27; 7737,000; 2043,000; 4995,000;192,88618
1645,07; 7310,000; 2025,000; 4923,000;182,36715
1648,86; 6735,000; 2022,000; 4872,000;165,36842
1652,66; 6427,000; 2009,000; 4849,000;155,56338
1656,44; 6026,000; 2080,000; 4866,000;141,63676
1660,22; 5984,000; 2279,000; 5011,000;135,61493
1664,00; 6001,000; 2386,000; 5119,000;132,27223
1667,77; 5589,000; 2147,000; 4820,000;128,76917
1671,53; 5369,000; 2096,000; 4676,000;126,86047
1675,29; 5233,000; 1956,000; 4597,000;124,08179
1679,05; 5514,000; 2235,000; 4841,000;125,82502
1682,80; 5332,000; 2121,000; 4673,000;125,82288
1686,54; 5522,000; 2345,000; 4882,000;125,22665
1690,28; 5500,000; 2330,000; 4848,000;125,89357
1694,01; 5030,000; 1942,000; 4390,000;126,14379
1697,74; 5273,000; 2079,000; 4510,000;131,38626
1701,46; 5368,000; 2282,000; 4676,000;128,90560
1705,18; 5117,000; 2006,000; 4351,000;132,66525
1708,89; 4860,000; 1911,000; 4242,000;126,51223
1712,60; 5269,000; 2253,000; 4569,000;130,22453
1716,30; 5222,000; 2295,000; 4547,000;129,97336
1720,00; 5210,000; 2337,000; 4572,000;128,54586
1723,69; 5200,000; 2261,000; 4469,000;133,10688
1727,38; 4894,000; 1905,000; 4079,000;137,48850
1731,06; 5128,000; 2204,000; 4366,000;135,24514
1734,73; 5041,000; 2153,000; 4269,000;136,48393
1738,40; 4951,000; 1998,000; 4086,000;141,42720
1742,07; 5368,000; 2398,000; 4492,000;141,83381
1745,73; 5133,000; 2036,000; 4113,000;149,10929
1749,38; 5328,000; 2316,000; 4333,000;149,33069
1753,03; 5306,000; 2360,000; 4336,000;149,08907
1756,67; 5167,000; 2169,000; 4109,000;154,53608
1760,31; 5364,000; 2287,000; 4202,000;160,67885
1763,94; 5318,000; 2226,000; 4114,000;163,77119
1767,57; 5172,000; 2202,000; 4056,000;160,19417
1771,19; 5073,000; 2090,000; 3874,000;167,20852
1774,81; 5109,000; 2248,000; 4032,000;160,36996
1778,42; 5044,000; 2269,000; 4027,000;157,84983
1782,03; 4879,000; 2095,000; 3823,000;161,11111
1785,63; 4820,000; 2035,000; 3722,000;165,08595
1789,22; 4850,000; 2111,000; 3791,000;163,03571
1792,81; 4734,000; 1992,000; 3582,000;172,45283
1796,40; 4720,000; 1886,000; 3487,000;177,01437
1799,98; 5313,000; 2449,000; 4025,000;181,72589
1803,55; 5050,000; 2183,000; 3731,000;185,20672
1807,12; 5007,000; 2061,000; 3579,000;194,07115
1810,68; 5673,000; 2694,000; 4197,000;198,20359
1814,24; 4858,000; 1955,000; 3431,000;196,68022
1817,79; 5342,000; 2464,000; 3918,000;197,93673
1821,34; 5467,000; 2605,000; 4045,000;198,75000
1824,88; 4871,000; 2018,000; 3427,000;202,48403
1828,41; 5120,000; 2289,000; 3672,000;204,69993
1831,94; 4909,000; 2125,000; 3487,000;204,40529
1835,47; 4701,000; 1906,000; 3243,000;209,05011
1838,99; 4971,000; 2296,000; 3612,000;203,26748
1842,50; 4827,000; 2133,000; 3433,000;207,23077
1846,01; 4644,000; 2020,000; 3270,000;209,92000
1849,51; 4426,000; 1814,000; 3091,000;204,54190
1853,01; 4432,000; 1929,000; 3201,000;196,77673
1856,50; 5203,000; 2700,000; 3984,000;194,93769
1859,99; 4337,000; 1862,000; 3058,000;206,93980
1863,47; 4626,000; 2216,000; 3413,000;201,33668
1866,94; 4349,000; 2005,000; 3183,000;198,98132
1870,41; 4794,000; 2432,000; 3602,000;201,88034
1873,88; 4563,000; 2210,000; 3354,000;205,68182
1877,34; 4764,000; 2493,000; 3625,000;200,61837
1880,79; 4611,000; 2396,000; 3490,000;202,46801
1884,24; 4536,000; 2396,000; 3479,000;197,59926
1887,68; 4091,000; 2020,000; 3039,000;203,23847
1891,12; 3891,000; 1891,000; 2931,000;192,30769
1894,55; 3934,000; 2022,000; 3034,000;188,93281
1897,98; 4205,000; 2272,000; 3275,000;192,72183
1901,40; 3850,000; 2030,000; 3031,000;181,81818

