927_PVC_FCR_1
Integration time [ms]: 100,000
Averaging Nr. [scans]: 1
Smoothing Nr. [pixels]: 0
Data measured with spectrometer [name]: 1204091U1
Wave   ;Sample   ;Dark     ;Reference;Reflectance
[nm]   ;[counts] ;[counts] ;[counts] ;[%]

1014,48; 8277,000; 2159,000; 6686,000;135,14469
1019,01; 8767,000; 2263,000; 7134,000;133,52494
1023,54; 9286,000; 2460,000; 7582,000;133,26825
1028,07; 9479,000; 2357,000; 7740,000;132,30541
1032,59; 9754,000; 2222,000; 7947,000;131,56332
1037,10;10300,000; 2251,000; 8409,000;130,70802
1041,62;10717,000; 2335,000; 8775,000;130,15528
1046,12;11547,000; 2824,000; 9555,000;129,59441
1050,62;11245,000; 2300,000; 9240,000;128,89049
1055,12;11447,000; 2181,000; 9387,000;128,58729
1059,62;11436,000; 2009,000; 9358,000;128,27596
1064,10;12172,000; 2401,000;10031,000;128,06029
1068,59;12595,000; 2570,000;10411,000;127,85359
1073,07;12784,000; 2356,000;10516,000;127,79412
1077,54;12903,000; 2278,000;10631,000;127,19981
1082,01;13352,000; 2486,000;11025,000;127,25143
1086,48;13700,000; 2488,000;11325,000;126,87564
1090,94;13409,000; 2081,000;10975,000;127,36676
1095,39;14756,000; 3026,000;12290,000;126,61917
1099,85;14381,000; 2345,000;11921,000;125,68922
1104,29;14694,000; 2403,000;12226,000;125,12471
1108,73;14560,000; 2060,000;12064,000;124,95002
1113,17;15426,000; 2768,000;12897,000;124,96791
1117,61;15266,000; 2351,000;12709,000;124,68623
1122,03;15736,000; 2714,000;13178,000;124,44572
1126,46;15489,000; 2237,000;12873,000;124,59571
1130,88;15562,000; 2154,000;12946,000;124,24018
1135,29;16373,000; 2780,000;13624,000;125,35042
1139,70;16013,000; 2109,000;13204,000;125,31771
1144,11;16146,000; 2181,000;13375,000;124,75433
1148,51;16358,000; 2244,000;13522,000;125,14630
1152,90;16489,000; 2301,000;13707,000;124,39067
1157,29;16264,000; 2006,000;13470,000;124,37195
1161,68;16642,000; 2262,000;13824,000;124,37295
1166,06;16587,000; 2248,000;13803,000;124,09347
1170,44;16671,000; 2494,000;13961,000;123,63303
1174,81;16168,000; 2196,000;13387,000;124,85033
1179,18;16240,000; 2339,000;13505,000;124,49400
1183,54;16287,000; 2531,000;13570,000;124,61274
1187,90;16329,000; 2580,000;13523,000;125,64196
1192,25;15931,000; 2379,000;13172,000;125,56286
1196,60;15706,000; 2222,000;12903,000;126,24286
1200,94;15848,000; 2485,000;12994,000;127,15767
1205,28;15399,000; 2285,000;12529,000;128,01640
1209,62;15520,000; 2418,000;12639,000;128,18707
1213,95;15567,000; 2543,000;12596,000;129,55337
1218,27;15015,000; 2113,000;12057,000;129,74658
1222,59;15228,000; 2762,000;12319,000;130,43842
1226,91;14987,000; 2482,000;12036,000;130,88759
1231,22;14610,000; 2269,000;11621,000;131,96108
1235,52;14171,000; 1935,000;11126,000;133,13024
1239,82;14455,000; 2360,000;11354,000;134,47854
1244,12;14024,000; 2191,000;10953,000;135,04908
1248,41;14247,000; 2519,000;11152,000;135,85081
1252,70;13349,000; 1808,000;10246,000;136,77412
1256,98;13667,000; 2069,000;10481,000;137,87447
1261,26;14197,000; 2578,000;10887,000;139,83632
1265,53;13292,000; 1911,000;10040,000;140,00492
1269,80;13577,000; 2085,000;10196,000;141,68413
1274,06;13708,000; 2472,000;10429,000;141,20900
1278,32;13407,000; 2246,000;10116,000;141,81703
1282,57;13450,000; 2315,000;10115,000;142,75641
1286,82;13264,000; 2159,000; 9878,000;143,86579
1291,06;13534,000; 2434,000; 9974,000;147,21485
1295,30;13462,000; 2354,000; 9886,000;147,47743
1299,53;13659,000; 2461,000;10030,000;147,94557
1303,76;13509,000; 2315,000; 9771,000;150,13412
1307,99;13784,000; 2633,000;10041,000;150,52646
1312,20;13687,000; 2539,000; 9875,000;151,96292
1316,42;13047,000; 2175,000; 9339,000;151,75879
1320,63;12979,000; 2246,000; 9303,000;152,09012
1324,83;12426,000; 1875,000; 8811,000;152,11938
1329,03;12752,000; 2294,000; 9122,000;153,16344
1333,23;12383,000; 2137,000; 8853,000;152,56105
1337,42;12661,000; 2453,000; 9095,000;153,68865
1341,60;12155,000; 2063,000; 8573,000;155,02304
1345,78;12377,000; 2407,000; 8779,000;156,46579
1349,96;11768,000; 1977,000; 8295,000;154,96993
1354,13;11953,000; 2218,000; 8428,000;156,76329
1358,29;11686,000; 2040,000; 8181,000;157,07539
1362,46;11785,000; 2455,000; 8370,000;157,73457
1366,61;11630,000; 2409,000; 8197,000;159,31237
1370,76;11144,000; 2106,000; 7751,000;160,10629
1374,91;11424,000; 2653,000; 8072,000;161,85643
1379,05;10495,000; 2056,000; 7236,000;162,91506
1383,18;11158,000; 2983,000; 8057,000;161,11549
1387,32;10287,000; 2042,000; 7174,000;160,65861
1391,44;10248,000; 2029,000; 7155,000;160,33945
1395,56;11208,000; 2838,000; 7994,000;162,33514
1399,68;10281,000; 1864,000; 7116,000;160,26276
1403,79;10463,000; 2045,000; 7382,000;157,72906
1407,90;10405,000; 1975,000; 7279,000;158,93665
1412,00;10500,000; 2064,000; 7433,000;157,12423
1416,10;10842,000; 2407,000; 7775,000;157,13487
1420,19;10620,000; 2106,000; 7422,000;160,15801
1424,27;10699,000; 2292,000; 7597,000;158,47314
1428,36;10768,000; 2373,000; 7627,000;159,78302
1432,43;10776,000; 2538,000; 7760,000;157,75565
1436,50;10517,000; 2221,000; 7397,000;160,27821
1440,57;10642,000; 2379,000; 7559,000;159,51737
1444,63;10177,000; 2054,000; 7190,000;158,15810
1448,69; 9920,000; 1832,000; 6909,000;159,30668
1452,74;10242,000; 2149,000; 7178,000;160,92663
1456,79; 9916,000; 1924,000; 6934,000;159,52096
1460,83;10073,000; 2085,000; 7017,000;161,96269
1464,87;10358,000; 2389,000; 7273,000;163,16544
1468,90;10322,000; 2366,000; 7250,000;162,89926
1472,93;10129,000; 2274,000; 7073,000;163,67993
1476,95;10160,000; 2304,000; 7073,000;164,73055
1480,96; 9880,000; 2026,000; 6740,000;166,61010
1484,98;10057,000; 2214,000; 6916,000;166,80136
1488,98; 9889,000; 2321,000; 6981,000;162,40343
1492,98; 9796,000; 2415,000; 6974,000;161,89954
1496,98; 9498,000; 2066,000; 6594,000;164,13428
1500,97; 9778,000; 2503,000; 6934,000;164,18416
1504,96; 9118,000; 1869,000; 6310,000;163,22900
1508,94; 9738,000; 2442,000; 6874,000;164,62094
1512,92; 9328,000; 2047,000; 6459,000;165,02720
1516,89; 9333,000; 2181,000; 6559,000;163,36227
1520,85; 9055,000; 2039,000; 6397,000;160,99128
1524,81; 9785,000; 2622,000; 6923,000;166,54266
1528,77; 9105,000; 1993,000; 6335,000;163,79549
1532,72; 9214,000; 2083,000; 6385,000;165,76011
1536,67; 9442,000; 2574,000; 6827,000;161,48601
1540,61; 8915,000; 2053,000; 6158,000;167,16200
1544,54; 9346,000; 2397,000; 6559,000;166,96300
1548,47; 8658,000; 1870,000; 5963,000;165,84412
1552,40; 8983,000; 2311,000; 6340,000;165,59940
1556,32; 9037,000; 2289,000; 6299,000;168,27930
1560,23; 8703,000; 2216,000; 6063,000;168,62490
1564,15; 8729,000; 2266,000; 6123,000;167,56547
1568,05; 8673,000; 2111,000; 5937,000;171,51072
1571,95; 8851,000; 2431,000; 6174,000;171,52017
1575,84; 8418,000; 2066,000; 5767,000;171,62929
1579,73; 8467,000; 2334,000; 5973,000;168,53531
1583,62; 8340,000; 2251,000; 5853,000;169,04498
1587,50; 8068,000; 1973,000; 5552,000;170,29897
1591,37; 8453,000; 2501,000; 6051,000;167,66197
1595,24; 8063,000; 2195,000; 5695,000;167,65714
1599,11; 7893,000; 1935,000; 5426,000;170,66743
1602,96; 7788,000; 2027,000; 5422,000;169,69072
1606,82; 7798,000; 1926,000; 5276,000;175,28358
1610,67; 7914,000; 2202,000; 5507,000;172,82905
1614,51; 7919,000; 2375,000; 5635,000;170,06135
1618,35; 7458,000; 1955,000; 5143,000;172,61606
1622,18; 7612,000; 2163,000; 5307,000;173,31425
1626,01; 7477,000; 2191,000; 5286,000;170,79160
1629,83; 7451,000; 2237,000; 5309,000;169,72656
1633,65; 7467,000; 2363,000; 5411,000;167,45407
1637,46; 7099,000; 2065,000; 5041,000;169,15323
1641,27; 6856,000; 2043,000; 4995,000;163,04201
1645,07; 6762,000; 2025,000; 4923,000;163,45756
1648,86; 6733,000; 2022,000; 4872,000;165,29825
1652,66; 6651,000; 2009,000; 4849,000;163,45070
1656,44; 6519,000; 2080,000; 4866,000;159,33238
1660,22; 6668,000; 2279,000; 5011,000;160,65154
1664,00; 6797,000; 2386,000; 5119,000;161,39773
1667,77; 6416,000; 2147,000; 4820,000;159,70819
1671,53; 6369,000; 2096,000; 4676,000;165,62016
1675,29; 6361,000; 1956,000; 4597,000;166,79288
1679,05; 6620,000; 2235,000; 4841,000;168,26554
1682,80; 6414,000; 2121,000; 4673,000;168,22100
1686,54; 6622,000; 2345,000; 4882,000;168,58494
1690,28; 6554,000; 2330,000; 4848,000;167,75218
1694,01; 6036,000; 1942,000; 4390,000;167,23856
1697,74; 6284,000; 2079,000; 4510,000;172,97408
1701,46; 6431,000; 2282,000; 4676,000;173,30827
1705,18; 6049,000; 2006,000; 4351,000;172,40938
1708,89; 5941,000; 1911,000; 4242,000;172,88717
1712,60; 6194,000; 2253,000; 4569,000;170,16408
1716,30; 6228,000; 2295,000; 4547,000;174,64476
1720,00; 6329,000; 2337,000; 4572,000;178,61298
1723,69; 6068,000; 2261,000; 4469,000;172,41848
1727,38; 5710,000; 1905,000; 4079,000;175,02300
1731,06; 5997,000; 2204,000; 4366,000;175,43941
1734,73; 5928,000; 2153,000; 4269,000;178,40265
1738,40; 5746,000; 1998,000; 4086,000;179,50192
1742,07; 6086,000; 2398,000; 4492,000;176,12225
1745,73; 5805,000; 2036,000; 4113,000;181,46365
1749,38; 6084,000; 2316,000; 4333,000;186,81210
1753,03; 5986,000; 2360,000; 4336,000;183,50202
1756,67; 5675,000; 2169,000; 4109,000;180,72165
1760,31; 5727,000; 2287,000; 4202,000;179,63446
1763,94; 5700,000; 2226,000; 4114,000;184,00424
1767,57; 5632,000; 2202,000; 4056,000;185,00539
1771,19; 5349,000; 2090,000; 3874,000;182,67937
1774,81; 5569,000; 2248,000; 4032,000;186,15471
1778,42; 5497,000; 2269,000; 4027,000;183,61775
1782,03; 5310,000; 2095,000; 3823,000;186,05324
1785,63; 5170,000; 2035,000; 3722,000;185,83284
1789,22; 5246,000; 2111,000; 3791,000;186,60714
1792,81; 5010,000; 1992,000; 3582,000;189,81132
1796,40; 4914,000; 1886,000; 3487,000;189,13179
1799,98; 5467,000; 2449,000; 4025,000;191,49746
1803,55; 5237,000; 2183,000; 3731,000;197,28682
1807,12; 5093,000; 2061,000; 3579,000;199,73650
1810,68; 5675,000; 2694,000; 4197,000;198,33666
1814,24; 4799,000; 1955,000; 3431,000;192,68293
1817,79; 5271,000; 2464,000; 3918,000;193,05365
1821,34; 5408,000; 2605,000; 4045,000;194,65278
1824,88; 4802,000; 2018,000; 3427,000;197,58694
1828,41; 5013,000; 2289,000; 3672,000;196,96312
1831,94; 4867,000; 2125,000; 3487,000;201,32159
1835,47; 4621,000; 1906,000; 3243,000;203,06657
1838,99; 4856,000; 2296,000; 3612,000;194,52888
1842,50; 4741,000; 2133,000; 3433,000;200,61538
1846,01; 4632,000; 2020,000; 3270,000;208,96000
1849,51; 4449,000; 1814,000; 3091,000;206,34299
1853,01; 4442,000; 1929,000; 3201,000;197,56289
1856,50; 5246,000; 2700,000; 3984,000;198,28660
1859,99; 4388,000; 1862,000; 3058,000;211,20401
1863,47; 4676,000; 2216,000; 3413,000;205,51378
1866,94; 4388,000; 2005,000; 3183,000;202,29202
1870,41; 4767,000; 2432,000; 3602,000;199,57265
1873,88; 4587,000; 2210,000; 3354,000;207,77972
1877,34; 4950,000; 2493,000; 3625,000;217,04947
1880,79; 4720,000; 2396,000; 3490,000;212,43144
1884,24; 4652,000; 2396,000; 3479,000;208,31025
1887,68; 4151,000; 2020,000; 3039,000;209,12659
1891,12; 4081,000; 1891,000; 2931,000;210,57692
1894,55; 4145,000; 2022,000; 3034,000;209,78261
1897,98; 4424,000; 2272,000; 3275,000;214,55633
1901,40; 4066,000; 2030,000; 3031,000;203,39660

