A_ASA_FCR_1
Integration time [ms]: 100,000
Averaging Nr. [scans]: 1
Smoothing Nr. [pixels]: 0
Data measured with spectrometer [name]: 1204091U1
Wave   ;Sample   ;Dark     ;Reference;Reflectance
[nm]   ;[counts] ;[counts] ;[counts] ;[%]

1014,48; 7246,000; 2159,000; 6686,000;112,37022
1019,01; 7684,000; 2263,000; 7134,000;111,29132
1023,54; 8156,000; 2460,000; 7582,000;111,20656
1028,07; 8317,000; 2357,000; 7740,000;110,71893
1032,59; 8533,000; 2222,000; 7947,000;110,23581
1037,10; 8981,000; 2251,000; 8409,000;109,28873
1041,62; 9344,000; 2335,000; 8775,000;108,83540
1046,12;10110,000; 2824,000; 9555,000;108,24543
1050,62; 9808,000; 2300,000; 9240,000;108,18444
1055,12; 9948,000; 2181,000; 9387,000;107,78518
1059,62; 9908,000; 2009,000; 9358,000;107,48401
1064,10;10570,000; 2401,000;10031,000;107,06422
1068,59;10975,000; 2570,000;10411,000;107,19296
1073,07;11072,000; 2356,000;10516,000;106,81373
1077,54;11184,000; 2278,000;10631,000;106,62038
1082,01;11588,000; 2486,000;11025,000;106,59328
1086,48;11865,000; 2488,000;11325,000;106,11067
1090,94;11541,000; 2081,000;10975,000;106,36384
1095,39;12820,000; 3026,000;12290,000;105,72107
1099,85;12408,000; 2345,000;11921,000;105,08563
1104,29;12680,000; 2403,000;12226,000;104,62181
1108,73;12468,000; 2060,000;12064,000;104,03838
1113,17;13208,000; 2768,000;12897,000;103,07039
1117,61;12908,000; 2351,000;12709,000;101,92122
1122,03;13244,000; 2714,000;13178,000;100,63073
1126,46;12724,000; 2237,000;12873,000;98,59910
1130,88;12514,000; 2154,000;12946,000;95,99703
1135,29;12998,000; 2780,000;13624,000;94,22722
1139,70;12350,000; 2109,000;13204,000;92,30284
1144,11;12504,000; 2181,000;13375,000;92,21905
1148,51;12762,000; 2244,000;13522,000;93,26122
1152,90;13119,000; 2301,000;13707,000;94,84482
1157,29;13069,000; 2006,000;13470,000;96,50209
1161,68;13537,000; 2262,000;13824,000;97,51773
1166,06;13532,000; 2248,000;13803,000;97,65469
1170,44;13595,000; 2494,000;13961,000;96,80823
1174,81;12981,000; 2196,000;13387,000;96,37208
1179,18;13008,000; 2339,000;13505,000;95,54899
1183,54;12974,000; 2531,000;13570,000;94,60096
1187,90;12858,000; 2580,000;13523,000;93,92306
1192,25;12491,000; 2379,000;13172,000;93,69035
1196,60;12226,000; 2222,000;12903,000;93,66164
1200,94;12382,000; 2485,000;12994,000;94,17642
1205,28;12055,000; 2285,000;12529,000;95,37290
1209,62;12255,000; 2418,000;12639,000;96,24303
1213,95;12407,000; 2543,000;12596,000;98,11996
1218,27;11987,000; 2113,000;12057,000;99,29606
1222,59;12391,000; 2762,000;12319,000;100,75337
1226,91;12209,000; 2482,000;12036,000;101,81076
1231,22;11853,000; 2269,000;11621,000;102,48075
1235,52;11445,000; 1935,000;11126,000;103,47079
1239,82;11717,000; 2360,000;11354,000;104,03602
1244,12;11375,000; 2191,000;10953,000;104,81625
1248,41;11622,000; 2519,000;11152,000;105,44423
1252,70;10746,000; 1808,000;10246,000;105,92557
1256,98;10988,000; 2069,000;10481,000;106,02710
1261,26;11416,000; 2578,000;10887,000;106,36659
1265,53;10573,000; 1911,000;10040,000;106,55677
1269,80;10751,000; 2085,000;10196,000;106,84256
1274,06;10959,000; 2472,000;10429,000;106,66080
1278,32;10662,000; 2246,000;10116,000;106,93774
1282,57;10656,000; 2315,000;10115,000;106,93590
1286,82;10436,000; 2159,000; 9878,000;107,22892
1291,06;10543,000; 2434,000; 9974,000;107,54642
1295,30;10455,000; 2354,000; 9886,000;107,55443
1299,53;10591,000; 2461,000;10030,000;107,41181
1303,76;10390,000; 2315,000; 9771,000;108,30204
1307,99;10674,000; 2633,000;10041,000;108,54482
1312,20;10539,000; 2539,000; 9875,000;109,05125
1316,42; 9979,000; 2175,000; 9339,000;108,93356
1320,63; 9921,000; 2246,000; 9303,000;108,75726
1324,83; 9437,000; 1875,000; 8811,000;109,02537
1329,03; 9733,000; 2294,000; 9122,000;108,94845
1333,23; 9435,000; 2137,000; 8853,000;108,66587
1337,42; 9645,000; 2453,000; 9095,000;108,28064
1341,60; 9084,000; 2063,000; 8573,000;107,84946
1345,78; 9268,000; 2407,000; 8779,000;107,67420
1349,96; 8752,000; 1977,000; 8295,000;107,23330
1354,13; 8837,000; 2218,000; 8428,000;106,58615
1358,29; 8532,000; 2040,000; 8181,000;105,71568
1362,46; 8692,000; 2455,000; 8370,000;105,44379
1366,61; 8480,000; 2409,000; 8197,000;104,88943
1370,76; 8012,000; 2106,000; 7751,000;104,62356
1374,91; 8292,000; 2653,000; 8072,000;104,05979
1379,05; 7420,000; 2056,000; 7236,000;103,55212
1383,18; 8238,000; 2983,000; 8057,000;103,56721
1387,32; 7308,000; 2042,000; 7174,000;102,61107
1391,44; 7264,000; 2029,000; 7155,000;102,12641
1395,56; 8106,000; 2838,000; 7994,000;102,17223
1399,68; 7206,000; 1864,000; 7116,000;101,71363
1403,79; 7447,000; 2045,000; 7382,000;101,21791
1407,90; 7362,000; 1975,000; 7279,000;101,56486
1412,00; 7520,000; 2064,000; 7433,000;101,62041
1416,10; 7909,000; 2407,000; 7775,000;102,49627
1420,19; 7597,000; 2106,000; 7422,000;103,29195
1424,27; 7789,000; 2292,000; 7597,000;103,61923
1428,36; 7831,000; 2373,000; 7627,000;103,88276
1432,43; 7974,000; 2538,000; 7760,000;104,09805
1436,50; 7604,000; 2221,000; 7397,000;103,99923
1440,57; 7766,000; 2379,000; 7559,000;103,99614
1444,63; 7414,000; 2054,000; 7190,000;104,36137
1448,69; 7155,000; 1832,000; 6909,000;104,84538
1452,74; 7443,000; 2149,000; 7178,000;105,26944
1456,79; 7190,000; 1924,000; 6934,000;105,10978
1460,83; 7299,000; 2085,000; 7017,000;105,71776
1464,87; 7559,000; 2389,000; 7273,000;105,85586
1468,90; 7543,000; 2366,000; 7250,000;105,99918
1472,93; 7401,000; 2274,000; 7073,000;106,83476
1476,95; 7427,000; 2304,000; 7073,000;107,42294
1480,96; 7079,000; 2026,000; 6740,000;107,19134
1484,98; 7255,000; 2214,000; 6916,000;107,20970
1488,98; 7313,000; 2321,000; 6981,000;107,12446
1492,98; 7320,000; 2415,000; 6974,000;107,58938
1496,98; 6971,000; 2066,000; 6594,000;108,32597
1500,97; 7345,000; 2503,000; 6934,000;109,27556
1504,96; 6725,000; 1869,000; 6310,000;109,34474
1508,94; 7284,000; 2442,000; 6874,000;109,25090
1512,92; 6862,000; 2047,000; 6459,000;109,13418
1516,89; 6989,000; 2181,000; 6559,000;109,82184
1520,85; 6828,000; 2039,000; 6397,000;109,88986
1524,81; 7374,000; 2622,000; 6923,000;110,48593
1528,77; 6762,000; 1993,000; 6335,000;109,83418
1532,72; 6815,000; 2083,000; 6385,000;109,99535
1536,67; 7212,000; 2574,000; 6827,000;109,05243
1540,61; 6558,000; 2053,000; 6158,000;109,74421
1544,54; 6939,000; 2397,000; 6559,000;109,13023
1548,47; 6343,000; 1870,000; 5963,000;109,28414
1552,40; 6735,000; 2311,000; 6340,000;109,80392
1556,32; 6698,000; 2289,000; 6299,000;109,95012
1560,23; 6481,000; 2216,000; 6063,000;110,86561
1564,15; 6535,000; 2266,000; 6123,000;110,68188
1568,05; 6355,000; 2111,000; 5937,000;110,92525
1571,95; 6605,000; 2431,000; 6174,000;111,51483
1575,84; 6213,000; 2066,000; 5767,000;112,05080
1579,73; 6412,000; 2334,000; 5973,000;112,06375
1583,62; 6295,000; 2251,000; 5853,000;112,27096
1587,50; 5951,000; 1973,000; 5552,000;111,14837
1591,37; 6466,000; 2501,000; 6051,000;111,69014
1595,24; 6100,000; 2195,000; 5695,000;111,57143
1599,11; 5784,000; 1935,000; 5426,000;110,25494
1602,96; 5799,000; 2027,000; 5422,000;111,10457
1606,82; 5603,000; 1926,000; 5276,000;109,76119
1610,67; 5783,000; 2202,000; 5507,000;108,35098
1614,51; 5896,000; 2375,000; 5635,000;108,00613
1618,35; 5384,000; 1955,000; 5143,000;107,55960
1622,18; 5493,000; 2163,000; 5307,000;105,91603
1626,01; 5439,000; 2191,000; 5286,000;104,94346
1629,83; 5367,000; 2237,000; 5309,000;101,88802
1633,65; 5436,000; 2363,000; 5411,000;100,82021
1637,46; 5082,000; 2065,000; 5041,000;101,37769
1641,27; 4974,000; 2043,000; 4995,000;99,28862
1645,07; 4889,000; 2025,000; 4923,000;98,82678
1648,86; 4839,000; 2022,000; 4872,000;98,84211
1652,66; 4762,000; 2009,000; 4849,000;96,93662
1656,44; 4747,000; 2080,000; 4866,000;95,72864
1660,22; 4829,000; 2279,000; 5011,000;93,33821
1664,00; 4864,000; 2386,000; 5119,000;90,66959
1667,77; 4509,000; 2147,000; 4820,000;88,36513
1671,53; 4385,000; 2096,000; 4676,000;88,72093
1675,29; 4269,000; 1956,000; 4597,000;87,58046
1679,05; 4528,000; 2235,000; 4841,000;87,98926
1682,80; 4392,000; 2121,000; 4673,000;88,98903
1686,54; 4622,000; 2345,000; 4882,000;89,75168
1690,28; 4592,000; 2330,000; 4848,000;89,83320
1694,01; 4168,000; 1942,000; 4390,000;90,93137
1697,74; 4296,000; 2079,000; 4510,000;91,19704
1701,46; 4504,000; 2282,000; 4676,000;92,81537
1705,18; 4189,000; 2006,000; 4351,000;93,09168
1708,89; 4088,000; 1911,000; 4242,000;93,39339
1712,60; 4448,000; 2253,000; 4569,000;94,77547
1716,30; 4466,000; 2295,000; 4547,000;96,40320
1720,00; 4502,000; 2337,000; 4572,000;96,86801
1723,69; 4426,000; 2261,000; 4469,000;98,05254
1727,38; 4042,000; 1905,000; 4079,000;98,29807
1731,06; 4322,000; 2204,000; 4366,000;97,96485
1734,73; 4255,000; 2153,000; 4269,000;99,33837
1738,40; 4105,000; 1998,000; 4086,000;100,90996
1742,07; 4481,000; 2398,000; 4492,000;99,47469
1745,73; 4109,000; 2036,000; 4113,000;99,80741
1749,38; 4345,000; 2316,000; 4333,000;100,59494
1753,03; 4383,000; 2360,000; 4336,000;102,37854
1756,67; 4182,000; 2169,000; 4109,000;103,76289
1760,31; 4286,000; 2287,000; 4202,000;104,38642
1763,94; 4218,000; 2226,000; 4114,000;105,50847
1767,57; 4184,000; 2202,000; 4056,000;106,90399
1771,19; 4035,000; 2090,000; 3874,000;109,02466
1774,81; 4179,000; 2248,000; 4032,000;108,23991
1778,42; 4185,000; 2269,000; 4027,000;108,98749
1782,03; 3987,000; 2095,000; 3823,000;109,49074
1785,63; 3890,000; 2035,000; 3722,000;109,95851
1789,22; 3935,000; 2111,000; 3791,000;108,57143
1792,81; 3747,000; 1992,000; 3582,000;110,37736
1796,40; 3656,000; 1886,000; 3487,000;110,55590
1799,98; 4209,000; 2449,000; 4025,000;111,67513
1803,55; 3917,000; 2183,000; 3731,000;112,01550
1807,12; 3779,000; 2061,000; 3579,000;113,17523
1810,68; 4415,000; 2694,000; 4197,000;114,50432
1814,24; 3670,000; 1955,000; 3431,000;116,19241
1817,79; 4196,000; 2464,000; 3918,000;119,11967
1821,34; 4308,000; 2605,000; 4045,000;118,26389
1824,88; 3693,000; 2018,000; 3427,000;118,87864
1828,41; 3951,000; 2289,000; 3672,000;120,17354
1831,94; 3789,000; 2125,000; 3487,000;122,17327
1835,47; 3548,000; 1906,000; 3243,000;122,81227
1838,99; 3948,000; 2296,000; 3612,000;125,53191
1842,50; 3734,000; 2133,000; 3433,000;123,15385
1846,01; 3601,000; 2020,000; 3270,000;126,48000
1849,51; 3398,000; 1814,000; 3091,000;124,04072
1853,01; 3494,000; 1929,000; 3201,000;123,03459
1856,50; 4278,000; 2700,000; 3984,000;122,89720
1859,99; 3387,000; 1862,000; 3058,000;127,50836
1863,47; 3714,000; 2216,000; 3413,000;125,14620
1866,94; 3489,000; 2005,000; 3183,000;125,97623
1870,41; 3839,000; 2432,000; 3602,000;120,25641
1873,88; 3653,000; 2210,000; 3354,000;126,13636
1877,34; 3933,000; 2493,000; 3625,000;127,20848
1880,79; 3809,000; 2396,000; 3490,000;129,15905
1884,24; 3780,000; 2396,000; 3479,000;127,79317
1887,68; 3377,000; 2020,000; 3039,000;133,16977
1891,12; 3240,000; 1891,000; 2931,000;129,71154
1894,55; 3372,000; 2022,000; 3034,000;133,39921
1897,98; 3620,000; 2272,000; 3275,000;134,39681
1901,40; 3352,000; 2030,000; 3031,000;132,06793

