A_PACF_FCR_1
Integration time [ms]: 100,000
Averaging Nr. [scans]: 1
Smoothing Nr. [pixels]: 0
Data measured with spectrometer [name]: 1204091U1
Wave   ;Sample   ;Dark     ;Reference;Reflectance
[nm]   ;[counts] ;[counts] ;[counts] ;[%]

1014,48; 4275,000; 2159,000; 6686,000;46,74177
1019,01; 4483,000; 2263,000; 7134,000;45,57586
1023,54; 4791,000; 2460,000; 7582,000;45,50957
1028,07; 4768,000; 2357,000; 7740,000;44,78915
1032,59; 4776,000; 2222,000; 7947,000;44,61135
1037,10; 4965,000; 2251,000; 8409,000;44,07275
1041,62; 5157,000; 2335,000; 8775,000;43,81988
1046,12; 5737,000; 2824,000; 9555,000;43,27737
1050,62; 5302,000; 2300,000; 9240,000;43,25648
1055,12; 5274,000; 2181,000; 9387,000;42,92256
1059,62; 5152,000; 2009,000; 9358,000;42,76772
1064,10; 5650,000; 2401,000;10031,000;42,58191
1068,59; 5896,000; 2570,000;10411,000;42,41806
1073,07; 5797,000; 2356,000;10516,000;42,16912
1077,54; 5789,000; 2278,000;10631,000;42,03280
1082,01; 6048,000; 2486,000;11025,000;41,71449
1086,48; 6169,000; 2488,000;11325,000;41,65441
1090,94; 5778,000; 2081,000;10975,000;41,56735
1095,39; 6892,000; 3026,000;12290,000;41,73143
1099,85; 6302,000; 2345,000;11921,000;41,32206
1104,29; 6472,000; 2403,000;12226,000;41,42319
1108,73; 6200,000; 2060,000;12064,000;41,38345
1113,17; 6983,000; 2768,000;12897,000;41,61319
1117,61; 6660,000; 2351,000;12709,000;41,60070
1122,03; 7077,000; 2714,000;13178,000;41,69534
1126,46; 6648,000; 2237,000;12873,000;41,47236
1130,88; 6636,000; 2154,000;12946,000;41,53076
1135,29; 7301,000; 2780,000;13624,000;41,69126
1139,70; 6682,000; 2109,000;13204,000;41,21676
1144,11; 6794,000; 2181,000;13375,000;41,20958
1148,51; 6900,000; 2244,000;13522,000;41,28392
1152,90; 6992,000; 2301,000;13707,000;41,12748
1157,29; 6730,000; 2006,000;13470,000;41,20726
1161,68; 7031,000; 2262,000;13824,000;41,24719
1166,06; 7025,000; 2248,000;13803,000;41,34141
1170,44; 7270,000; 2494,000;13961,000;41,64995
1174,81; 6868,000; 2196,000;13387,000;41,74783
1179,18; 7023,000; 2339,000;13505,000;41,94877
1183,54; 7147,000; 2531,000;13570,000;41,81538
1187,90; 7168,000; 2580,000;13523,000;41,92635
1192,25; 6943,000; 2379,000;13172,000;42,28667
1196,60; 6764,000; 2222,000;12903,000;42,52411
1200,94; 6993,000; 2485,000;12994,000;42,89656
1205,28; 6711,000; 2285,000;12529,000;43,20578
1209,62; 6818,000; 2418,000;12639,000;43,04863
1213,95; 6899,000; 2543,000;12596,000;43,33035
1218,27; 6418,000; 2113,000;12057,000;43,29244
1222,59; 6916,000; 2762,000;12319,000;43,46552
1226,91; 6623,000; 2482,000;12036,000;43,34310
1231,22; 6315,000; 2269,000;11621,000;43,26347
1235,52; 5941,000; 1935,000;11126,000;43,58612
1239,82; 6281,000; 2360,000;11354,000;43,59573
1244,12; 6034,000; 2191,000;10953,000;43,85985
1248,41; 6313,000; 2519,000;11152,000;43,94764
1252,70; 5535,000; 1808,000;10246,000;44,16923
1256,98; 5816,000; 2069,000;10481,000;44,54351
1261,26; 6278,000; 2578,000;10887,000;44,53003
1265,53; 5547,000; 1911,000;10040,000;44,72875
1269,80; 5708,000; 2085,000;10196,000;44,66774
1274,06; 6021,000; 2472,000;10429,000;44,60224
1278,32; 5770,000; 2246,000;10116,000;44,77764
1282,57; 5819,000; 2315,000;10115,000;44,92308
1286,82; 5655,000; 2159,000; 9878,000;45,29084
1291,06; 5880,000; 2434,000; 9974,000;45,70292
1295,30; 5790,000; 2354,000; 9886,000;45,61869
1299,53; 5939,000; 2461,000;10030,000;45,95059
1303,76; 5737,000; 2315,000; 9771,000;45,89592
1307,99; 6041,000; 2633,000;10041,000;46,00432
1312,20; 5930,000; 2539,000; 9875,000;46,22410
1316,42; 5489,000; 2175,000; 9339,000;46,25907
1320,63; 5523,000; 2246,000; 9303,000;46,43616
1324,83; 5098,000; 1875,000; 8811,000;46,46770
1329,03; 5542,000; 2294,000; 9122,000;47,56883
1333,23; 5289,000; 2137,000; 8853,000;46,93270
1337,42; 5578,000; 2453,000; 9095,000;47,04908
1341,60; 5123,000; 2063,000; 8573,000;47,00461
1345,78; 5441,000; 2407,000; 8779,000;47,61456
1349,96; 5009,000; 1977,000; 8295,000;47,98987
1354,13; 5180,000; 2218,000; 8428,000;47,69726
1358,29; 4975,000; 2040,000; 8181,000;47,79352
1362,46; 5303,000; 2455,000; 8370,000;48,14877
1366,61; 5232,000; 2409,000; 8197,000;48,77332
1370,76; 4866,000; 2106,000; 7751,000;48,89283
1374,91; 5372,000; 2653,000; 8072,000;50,17531
1379,05; 4649,000; 2056,000; 7236,000;50,05792
1383,18; 5561,000; 2983,000; 8057,000;50,80804
1387,32; 4614,000; 2042,000; 7174,000;50,11691
1391,44; 4603,000; 2029,000; 7155,000;50,21459
1395,56; 5422,000; 2838,000; 7994,000;50,11637
1399,68; 4472,000; 1864,000; 7116,000;49,65727
1403,79; 4718,000; 2045,000; 7382,000;50,08432
1407,90; 4635,000; 1975,000; 7279,000;50,15083
1412,00; 4741,000; 2064,000; 7433,000;49,86031
1416,10; 5107,000; 2407,000; 7775,000;50,29806
1420,19; 4784,000; 2106,000; 7422,000;50,37622
1424,27; 4977,000; 2292,000; 7597,000;50,61263
1428,36; 5003,000; 2373,000; 7627,000;50,05710
1432,43; 5170,000; 2538,000; 7760,000;50,40214
1436,50; 4831,000; 2221,000; 7397,000;50,42504
1440,57; 4976,000; 2379,000; 7559,000;50,13514
1444,63; 4612,000; 2054,000; 7190,000;49,80530
1448,69; 4397,000; 1832,000; 6909,000;50,52196
1452,74; 4689,000; 2149,000; 7178,000;50,50706
1456,79; 4459,000; 1924,000; 6934,000;50,59880
1460,83; 4622,000; 2085,000; 7017,000;51,43958
1464,87; 4892,000; 2389,000; 7273,000;51,24898
1468,90; 4858,000; 2366,000; 7250,000;51,02375
1472,93; 4760,000; 2274,000; 7073,000;51,80246
1476,95; 4753,000; 2304,000; 7073,000;51,35248
1480,96; 4445,000; 2026,000; 6740,000;51,31523
1484,98; 4648,000; 2214,000; 6916,000;51,76521
1488,98; 4709,000; 2321,000; 6981,000;51,24464
1492,98; 4778,000; 2415,000; 6974,000;51,83154
1496,98; 4430,000; 2066,000; 6594,000;52,20848
1500,97; 4818,000; 2503,000; 6934,000;52,24554
1504,96; 4194,000; 1869,000; 6310,000;52,35307
1508,94; 4792,000; 2442,000; 6874,000;53,02347
1512,92; 4395,000; 2047,000; 6459,000;53,21850
1516,89; 4523,000; 2181,000; 6559,000;53,49475
1520,85; 4381,000; 2039,000; 6397,000;53,74025
1524,81; 4933,000; 2622,000; 6923,000;53,73169
1528,77; 4332,000; 1993,000; 6335,000;53,86918
1532,72; 4393,000; 2083,000; 6385,000;53,69596
1536,67; 4849,000; 2574,000; 6827,000;53,49165
1540,61; 4278,000; 2053,000; 6158,000;54,20219
1544,54; 4648,000; 2397,000; 6559,000;54,08457
1548,47; 4064,000; 1870,000; 5963,000;53,60371
1552,40; 4502,000; 2311,000; 6340,000;54,38074
1556,32; 4490,000; 2289,000; 6299,000;54,88778
1560,23; 4361,000; 2216,000; 6063,000;55,75773
1564,15; 4398,000; 2266,000; 6123,000;55,27612
1568,05; 4240,000; 2111,000; 5937,000;55,64558
1571,95; 4531,000; 2431,000; 6174,000;56,10473
1575,84; 4135,000; 2066,000; 5767,000;55,90381
1579,73; 4376,000; 2334,000; 5973,000;56,11432
1583,62; 4293,000; 2251,000; 5853,000;56,69073
1587,50; 3984,000; 1973,000; 5552,000;56,18888
1591,37; 4527,000; 2501,000; 6051,000;57,07042
1595,24; 4213,000; 2195,000; 5695,000;57,65714
1599,11; 3930,000; 1935,000; 5426,000;57,14695
1602,96; 3994,000; 2027,000; 5422,000;57,93814
1606,82; 3854,000; 1926,000; 5276,000;57,55224
1610,67; 4109,000; 2202,000; 5507,000;57,70045
1614,51; 4276,000; 2375,000; 5635,000;58,31288
1618,35; 3831,000; 1955,000; 5143,000;58,84567
1622,18; 4055,000; 2163,000; 5307,000;60,17812
1626,01; 4041,000; 2191,000; 5286,000;59,77383
1629,83; 4070,000; 2237,000; 5309,000;59,66797
1633,65; 4174,000; 2363,000; 5411,000;59,41601
1637,46; 3883,000; 2065,000; 5041,000;61,08871
1641,27; 3809,000; 2043,000; 4995,000;59,82385
1645,07; 3782,000; 2025,000; 4923,000;60,62802
1648,86; 3755,000; 2022,000; 4872,000;60,80702
1652,66; 3741,000; 2009,000; 4849,000;60,98592
1656,44; 3801,000; 2080,000; 4866,000;61,77315
1660,22; 3942,000; 2279,000; 5011,000;60,87116
1664,00; 4083,000; 2386,000; 5119,000;62,09294
1667,77; 3817,000; 2147,000; 4820,000;62,47662
1671,53; 3720,000; 2096,000; 4676,000;62,94574
1675,29; 3624,000; 1956,000; 4597,000;63,15789
1679,05; 3871,000; 2235,000; 4841,000;62,77820
1682,80; 3737,000; 2121,000; 4673,000;63,32288
1686,54; 3982,000; 2345,000; 4882,000;64,52503
1690,28; 3948,000; 2330,000; 4848,000;64,25735
1694,01; 3504,000; 1942,000; 4390,000;63,80719
1697,74; 3645,000; 2079,000; 4510,000;64,41794
1701,46; 3854,000; 2282,000; 4676,000;65,66416
1705,18; 3565,000; 2006,000; 4351,000;66,48188
1708,89; 3458,000; 1911,000; 4242,000;66,36637
1712,60; 3790,000; 2253,000; 4569,000;66,36442
1716,30; 3826,000; 2295,000; 4547,000;67,98401
1720,00; 3833,000; 2337,000; 4572,000;66,93512
1723,69; 3736,000; 2261,000; 4469,000;66,80254
1727,38; 3355,000; 1905,000; 4079,000;66,69733
1731,06; 3659,000; 2204,000; 4366,000;67,29880
1734,73; 3615,000; 2153,000; 4269,000;69,09263
1738,40; 3448,000; 1998,000; 4086,000;69,44444
1742,07; 3822,000; 2398,000; 4492,000;68,00382
1745,73; 3449,000; 2036,000; 4113,000;68,03081
1749,38; 3723,000; 2316,000; 4333,000;69,75706
1753,03; 3761,000; 2360,000; 4336,000;70,90081
1756,67; 3516,000; 2169,000; 4109,000;69,43299
1760,31; 3649,000; 2287,000; 4202,000;71,12272
1763,94; 3574,000; 2226,000; 4114,000;71,39831
1767,57; 3537,000; 2202,000; 4056,000;72,00647
1771,19; 3392,000; 2090,000; 3874,000;72,98206
1774,81; 3554,000; 2248,000; 4032,000;73,20628
1778,42; 3568,000; 2269,000; 4027,000;73,89078
1782,03; 3393,000; 2095,000; 3823,000;75,11574
1785,63; 3286,000; 2035,000; 3722,000;74,15531
1789,22; 3360,000; 2111,000; 3791,000;74,34524
1792,81; 3203,000; 1992,000; 3582,000;76,16352
1796,40; 3104,000; 1886,000; 3487,000;76,07745
1799,98; 3672,000; 2449,000; 4025,000;77,60152
1803,55; 3389,000; 2183,000; 3731,000;77,90698
1807,12; 3242,000; 2061,000; 3579,000;77,79974
1810,68; 3881,000; 2694,000; 4197,000;78,97538
1814,24; 3128,000; 1955,000; 3431,000;79,47154
1817,79; 3624,000; 2464,000; 3918,000;79,77992
1821,34; 3746,000; 2605,000; 4045,000;79,23611
1824,88; 3145,000; 2018,000; 3427,000;79,98581
1828,41; 3416,000; 2289,000; 3672,000;81,48952
1831,94; 3220,000; 2125,000; 3487,000;80,39648
1835,47; 3010,000; 1906,000; 3243,000;82,57292
1838,99; 3401,000; 2296,000; 3612,000;83,96657
1842,50; 3200,000; 2133,000; 3433,000;82,07692
1846,01; 3098,000; 2020,000; 3270,000;86,24000
1849,51; 2898,000; 1814,000; 3091,000;84,88645
1853,01; 2995,000; 1929,000; 3201,000;83,80503
1856,50; 3798,000; 2700,000; 3984,000;85,51402
1859,99; 2894,000; 1862,000; 3058,000;86,28763
1863,47; 3255,000; 2216,000; 3413,000;86,80033
1866,94; 3035,000; 2005,000; 3183,000;87,43633
1870,41; 3421,000; 2432,000; 3602,000;84,52991
1873,88; 3201,000; 2210,000; 3354,000;86,62587
1877,34; 3511,000; 2493,000; 3625,000;89,92933
1880,79; 3385,000; 2396,000; 3490,000;90,40219
1884,24; 3361,000; 2396,000; 3479,000;89,10434
1887,68; 2974,000; 2020,000; 3039,000;93,62120
1891,12; 2834,000; 1891,000; 2931,000;90,67308
1894,55; 2961,000; 2022,000; 3034,000;92,78656
1897,98; 3220,000; 2272,000; 3275,000;94,51645
1901,40; 2966,000; 2030,000; 3031,000;93,50649

