A_PC_FCR_1
Integration time [ms]: 100,000
Averaging Nr. [scans]: 1
Smoothing Nr. [pixels]: 0
Data measured with spectrometer [name]: 1204091U1
Wave   ;Sample   ;Dark     ;Reference;Reflectance
[nm]   ;[counts] ;[counts] ;[counts] ;[%]

1014,48; 5916,000; 2159,000; 6686,000;82,99094
1019,01; 6264,000; 2263,000; 7134,000;82,13919
1023,54; 6656,000; 2460,000; 7582,000;81,92112
1028,07; 6729,000; 2357,000; 7740,000;81,21865
1032,59; 6851,000; 2222,000; 7947,000;80,85590
1037,10; 7184,000; 2251,000; 8409,000;80,10718
1041,62; 7450,000; 2335,000; 8775,000;79,42547
1046,12; 8110,000; 2824,000; 9555,000;78,53216
1050,62; 7750,000; 2300,000; 9240,000;78,53026
1055,12; 7801,000; 2181,000; 9387,000;77,99056
1059,62; 7720,000; 2009,000; 9358,000;77,71125
1064,10; 8307,000; 2401,000;10031,000;77,40498
1068,59; 8617,000; 2570,000;10411,000;77,12027
1073,07; 8625,000; 2356,000;10516,000;76,82598
1077,54; 8680,000; 2278,000;10631,000;76,64312
1082,01; 9008,000; 2486,000;11025,000;76,37897
1086,48; 9189,000; 2488,000;11325,000;75,82890
1090,94; 8822,000; 2081,000;10975,000;75,79267
1095,39;10002,000; 3026,000;12290,000;75,30225
1099,85; 9478,000; 2345,000;11921,000;74,48830
1104,29; 9648,000; 2403,000;12226,000;73,75547
1108,73; 9336,000; 2060,000;12064,000;72,73091
1113,17;10011,000; 2768,000;12897,000;71,50755
1117,61; 9585,000; 2351,000;12709,000;69,83974
1122,03; 9853,000; 2714,000;13178,000;68,22439
1126,46; 9322,000; 2237,000;12873,000;66,61339
1130,88; 9204,000; 2154,000;12946,000;65,32617
1135,29; 9855,000; 2780,000;13624,000;65,24345
1139,70; 9420,000; 2109,000;13204,000;65,89455
1144,11; 9670,000; 2181,000;13375,000;66,90191
1148,51; 9861,000; 2244,000;13522,000;67,53857
1152,90;10044,000; 2301,000;13707,000;67,88532
1157,29; 9821,000; 2006,000;13470,000;68,16992
1161,68;10090,000; 2262,000;13824,000;67,70455
1166,06; 9975,000; 2248,000;13803,000;66,87148
1170,44;10078,000; 2494,000;13961,000;66,13761
1174,81; 9544,000; 2196,000;13387,000;65,65991
1179,18; 9630,000; 2339,000;13505,000;65,29644
1183,54; 9663,000; 2531,000;13570,000;64,60730
1187,90; 9677,000; 2580,000;13523,000;64,85424
1192,25; 9445,000; 2379,000;13172,000;65,46836
1196,60; 9348,000; 2222,000;12903,000;66,71660
1200,94; 9609,000; 2485,000;12994,000;67,78951
1205,28; 9329,000; 2285,000;12529,000;68,76220
1209,62; 9510,000; 2418,000;12639,000;69,38656
1213,95; 9606,000; 2543,000;12596,000;70,25763
1218,27; 9130,000; 2113,000;12057,000;70,56516
1222,59; 9566,000; 2762,000;12319,000;71,19389
1226,91; 9326,000; 2482,000;12036,000;71,63492
1231,22; 8981,000; 2269,000;11621,000;71,77074
1235,52; 8561,000; 1935,000;11126,000;72,09226
1239,82; 8869,000; 2360,000;11354,000;72,37047
1244,12; 8557,000; 2191,000;10953,000;72,65465
1248,41; 8799,000; 2519,000;11152,000;72,74412
1252,70; 7944,000; 1808,000;10246,000;72,71865
1256,98; 8192,000; 2069,000;10481,000;72,78887
1261,26; 8624,000; 2578,000;10887,000;72,76447
1265,53; 7844,000; 1911,000;10040,000;72,98561
1269,80; 8013,000; 2085,000;10196,000;73,08593
1274,06; 8290,000; 2472,000;10429,000;73,11801
1278,32; 8010,000; 2246,000;10116,000;73,24015
1282,57; 8002,000; 2315,000;10115,000;72,91026
1286,82; 7812,000; 2159,000; 9878,000;73,23487
1291,06; 7964,000; 2434,000; 9974,000;73,34218
1295,30; 7875,000; 2354,000; 9886,000;73,30058
1299,53; 8011,000; 2461,000;10030,000;73,32541
1303,76; 7793,000; 2315,000; 9771,000;73,47103
1307,99; 8084,000; 2633,000;10041,000;73,58261
1312,20; 7936,000; 2539,000; 9875,000;73,56870
1316,42; 7415,000; 2175,000; 9339,000;73,14350
1320,63; 7419,000; 2246,000; 9303,000;73,30310
1324,83; 6956,000; 1875,000; 8811,000;73,25548
1329,03; 7292,000; 2294,000; 9122,000;73,19859
1333,23; 7008,000; 2137,000; 8853,000;72,52829
1337,42; 7263,000; 2453,000; 9095,000;72,41795
1341,60; 6729,000; 2063,000; 8573,000;71,67435
1345,78; 6950,000; 2407,000; 8779,000;71,29630
1349,96; 6422,000; 1977,000; 8295,000;70,35454
1354,13; 6516,000; 2218,000; 8428,000;69,21095
1358,29; 6275,000; 2040,000; 8181,000;68,96271
1362,46; 6506,000; 2455,000; 8370,000;68,48690
1366,61; 6377,000; 2409,000; 8197,000;68,55563
1370,76; 5977,000; 2106,000; 7751,000;68,57396
1374,91; 6392,000; 2653,000; 8072,000;68,99797
1379,05; 5613,000; 2056,000; 7236,000;68,66795
1383,18; 6473,000; 2983,000; 8057,000;68,78203
1387,32; 5558,000; 2042,000; 7174,000;68,51130
1391,44; 5544,000; 2029,000; 7155,000;68,57199
1395,56; 6362,000; 2838,000; 7994,000;68,34756
1399,68; 5436,000; 1864,000; 7116,000;68,01219
1403,79; 5676,000; 2045,000; 7382,000;68,03448
1407,90; 5601,000; 1975,000; 7279,000;68,36350
1412,00; 5728,000; 2064,000; 7433,000;68,24362
1416,10; 6123,000; 2407,000; 7775,000;69,22504
1420,19; 5784,000; 2106,000; 7422,000;69,18736
1424,27; 6000,000; 2292,000; 7597,000;69,89632
1428,36; 6040,000; 2373,000; 7627,000;69,79444
1432,43; 6198,000; 2538,000; 7760,000;70,08809
1436,50; 5845,000; 2221,000; 7397,000;70,01546
1440,57; 6026,000; 2379,000; 7559,000;70,40541
1444,63; 5670,000; 2054,000; 7190,000;70,40498
1448,69; 5446,000; 1832,000; 6909,000;71,18377
1452,74; 5739,000; 2149,000; 7178,000;71,38596
1456,79; 5526,000; 1924,000; 6934,000;71,89621
1460,83; 5653,000; 2085,000; 7017,000;72,34388
1464,87; 5921,000; 2389,000; 7273,000;72,31777
1468,90; 5919,000; 2366,000; 7250,000;72,74775
1472,93; 5787,000; 2274,000; 7073,000;73,20275
1476,95; 5845,000; 2304,000; 7073,000;74,25037
1480,96; 5526,000; 2026,000; 6740,000;74,24692
1484,98; 5720,000; 2214,000; 6916,000;74,56402
1488,98; 5777,000; 2321,000; 6981,000;74,16309
1492,98; 5823,000; 2415,000; 6974,000;74,75324
1496,98; 5456,000; 2066,000; 6594,000;74,86749
1500,97; 5843,000; 2503,000; 6934,000;75,37802
1504,96; 5208,000; 1869,000; 6310,000;75,18577
1508,94; 5794,000; 2442,000; 6874,000;75,63177
1512,92; 5395,000; 2047,000; 6459,000;75,88395
1516,89; 5504,000; 2181,000; 6559,000;75,90224
1520,85; 5365,000; 2039,000; 6397,000;76,31941
1524,81; 5902,000; 2622,000; 6923,000;76,26133
1528,77; 5301,000; 1993,000; 6335,000;76,18609
1532,72; 5371,000; 2083,000; 6385,000;76,42957
1536,67; 5820,000; 2574,000; 6827,000;76,32260
1540,61; 5206,000; 2053,000; 6158,000;76,80877
1544,54; 5595,000; 2397,000; 6559,000;76,83806
1548,47; 5016,000; 1870,000; 5963,000;76,86294
1552,40; 5441,000; 2311,000; 6340,000;77,68677
1556,32; 5382,000; 2289,000; 6299,000;77,13217
1560,23; 5221,000; 2216,000; 6063,000;78,11282
1564,15; 5255,000; 2266,000; 6123,000;77,49546
1568,05; 5082,000; 2111,000; 5937,000;77,65290
1571,95; 5348,000; 2431,000; 6174,000;77,93214
1575,84; 4951,000; 2066,000; 5767,000;77,95190
1579,73; 5166,000; 2334,000; 5973,000;77,82358
1583,62; 5055,000; 2251,000; 5853,000;77,84564
1587,50; 4733,000; 1973,000; 5552,000;77,11651
1591,37; 5240,000; 2501,000; 6051,000;77,15493
1595,24; 4881,000; 2195,000; 5695,000;76,74286
1599,11; 4595,000; 1935,000; 5426,000;76,19593
1602,96; 4611,000; 2027,000; 5422,000;76,11193
1606,82; 4424,000; 1926,000; 5276,000;74,56716
1610,67; 4642,000; 2202,000; 5507,000;73,82753
1614,51; 4758,000; 2375,000; 5635,000;73,09816
1618,35; 4249,000; 1955,000; 5143,000;71,95734
1622,18; 4397,000; 2163,000; 5307,000;71,05598
1626,01; 4380,000; 2191,000; 5286,000;70,72698
1629,83; 4347,000; 2237,000; 5309,000;68,68490
1633,65; 4411,000; 2363,000; 5411,000;67,19160
1637,46; 4040,000; 2065,000; 5041,000;66,36425
1641,27; 3898,000; 2043,000; 4995,000;62,83875
1645,07; 3762,000; 2025,000; 4923,000;59,93789
1648,86; 3693,000; 2022,000; 4872,000;58,63158
1652,66; 3611,000; 2009,000; 4849,000;56,40845
1656,44; 3630,000; 2080,000; 4866,000;55,63532
1660,22; 3763,000; 2279,000; 5011,000;54,31918
1664,00; 3871,000; 2386,000; 5119,000;54,33589
1667,77; 3596,000; 2147,000; 4820,000;54,20875
1671,53; 3549,000; 2096,000; 4676,000;56,31783
1675,29; 3457,000; 1956,000; 4597,000;56,83453
1679,05; 3745,000; 2235,000; 4841,000;57,94321
1682,80; 3613,000; 2121,000; 4673,000;58,46395
1686,54; 3844,000; 2345,000; 4882,000;59,08553
1690,28; 3834,000; 2330,000; 4848,000;59,72994
1694,01; 3426,000; 1942,000; 4390,000;60,62092
1697,74; 3554,000; 2079,000; 4510,000;60,67462
1701,46; 3778,000; 2282,000; 4676,000;62,48956
1705,18; 3484,000; 2006,000; 4351,000;63,02772
1708,89; 3405,000; 1911,000; 4242,000;64,09266
1712,60; 3769,000; 2253,000; 4569,000;65,45769
1716,30; 3785,000; 2295,000; 4547,000;66,16341
1720,00; 3823,000; 2337,000; 4572,000;66,48770
1723,69; 3746,000; 2261,000; 4469,000;67,25543
1727,38; 3350,000; 1905,000; 4079,000;66,46734
1731,06; 3634,000; 2204,000; 4366,000;66,14246
1734,73; 3594,000; 2153,000; 4269,000;68,10019
1738,40; 3427,000; 1998,000; 4086,000;68,43870
1742,07; 3825,000; 2398,000; 4492,000;68,14709
1745,73; 3487,000; 2036,000; 4113,000;69,86038
1749,38; 3753,000; 2316,000; 4333,000;71,24442
1753,03; 3809,000; 2360,000; 4336,000;73,32996
1756,67; 3585,000; 2169,000; 4109,000;72,98969
1760,31; 3738,000; 2287,000; 4202,000;75,77023
1763,94; 3635,000; 2226,000; 4114,000;74,62924
1767,57; 3610,000; 2202,000; 4056,000;75,94391
1771,19; 3472,000; 2090,000; 3874,000;77,46637
1774,81; 3624,000; 2248,000; 4032,000;77,13004
1778,42; 3661,000; 2269,000; 4027,000;79,18089
1782,03; 3479,000; 2095,000; 3823,000;80,09259
1785,63; 3405,000; 2035,000; 3722,000;81,20925
1789,22; 3460,000; 2111,000; 3791,000;80,29762
1792,81; 3276,000; 1992,000; 3582,000;80,75472
1796,40; 3198,000; 1886,000; 3487,000;81,94878
1799,98; 3761,000; 2449,000; 4025,000;83,24873
1803,55; 3480,000; 2183,000; 3731,000;83,78553
1807,12; 3336,000; 2061,000; 3579,000;83,99209
1810,68; 3962,000; 2694,000; 4197,000;84,36460
1814,24; 3195,000; 1955,000; 3431,000;84,01084
1817,79; 3698,000; 2464,000; 3918,000;84,86933
1821,34; 3840,000; 2605,000; 4045,000;85,76389
1824,88; 3230,000; 2018,000; 3427,000;86,01845
1828,41; 3493,000; 2289,000; 3672,000;87,05712
1831,94; 3315,000; 2125,000; 3487,000;87,37151
1835,47; 3089,000; 1906,000; 3243,000;88,48168
1838,99; 3496,000; 2296,000; 3612,000;91,18541
1842,50; 3285,000; 2133,000; 3433,000;88,61538
1846,01; 3204,000; 2020,000; 3270,000;94,72000
1849,51; 3009,000; 1814,000; 3091,000;93,57870
1853,01; 3084,000; 1929,000; 3201,000;90,80189
1856,50; 3904,000; 2700,000; 3984,000;93,76947
1859,99; 2988,000; 1862,000; 3058,000;94,14716
1863,47; 3354,000; 2216,000; 3413,000;95,07101
1866,94; 3094,000; 2005,000; 3183,000;92,44482
1870,41; 3556,000; 2432,000; 3602,000;96,06838
1873,88; 3288,000; 2210,000; 3354,000;94,23077
1877,34; 3582,000; 2493,000; 3625,000;96,20141
1880,79; 3451,000; 2396,000; 3490,000;96,43510
1884,24; 3425,000; 2396,000; 3479,000;95,01385
1887,68; 3032,000; 2020,000; 3039,000;99,31305
1891,12; 2904,000; 1891,000; 2931,000;97,40385
1894,55; 3001,000; 2022,000; 3034,000;96,73913
1897,98; 3257,000; 2272,000; 3275,000;98,20538
1901,40; 2998,000; 2030,000; 3031,000;96,70330

