A_PCCF_FCR_1
Integration time [ms]: 100,000
Averaging Nr. [scans]: 1
Smoothing Nr. [pixels]: 0
Data measured with spectrometer [name]: 1204091U1
Wave   ;Sample   ;Dark     ;Reference;Reflectance
[nm]   ;[counts] ;[counts] ;[counts] ;[%]

1014,48; 4522,000; 2159,000; 6686,000;52,19792
1019,01; 4751,000; 2263,000; 7134,000;51,07781
1023,54; 5062,000; 2460,000; 7582,000;50,80047
1028,07; 5059,000; 2357,000; 7740,000;50,19506
1032,59; 5085,000; 2222,000; 7947,000;50,00873
1037,10; 5273,000; 2251,000; 8409,000;49,07437
1041,62; 5493,000; 2335,000; 8775,000;49,03727
1046,12; 6095,000; 2824,000; 9555,000;48,59605
1050,62; 5643,000; 2300,000; 9240,000;48,17003
1055,12; 5624,000; 2181,000; 9387,000;47,77963
1059,62; 5520,000; 2009,000; 9358,000;47,77521
1064,10; 6010,000; 2401,000;10031,000;47,30013
1068,59; 6307,000; 2570,000;10411,000;47,65974
1073,07; 6213,000; 2356,000;10516,000;47,26716
1077,54; 6212,000; 2278,000;10631,000;47,09685
1082,01; 6528,000; 2486,000;11025,000;47,33575
1086,48; 6631,000; 2488,000;11325,000;46,88243
1090,94; 6257,000; 2081,000;10975,000;46,95300
1095,39; 7376,000; 3026,000;12290,000;46,95596
1099,85; 6776,000; 2345,000;11921,000;46,27193
1104,29; 6956,000; 2403,000;12226,000;46,35040
1108,73; 6683,000; 2060,000;12064,000;46,21152
1113,17; 7476,000; 2768,000;12897,000;46,48040
1117,61; 7142,000; 2351,000;12709,000;46,25410
1122,03; 7574,000; 2714,000;13178,000;46,44495
1126,46; 7162,000; 2237,000;12873,000;46,30500
1130,88; 7133,000; 2154,000;12946,000;46,13603
1135,29; 7840,000; 2780,000;13624,000;46,66175
1139,70; 7245,000; 2109,000;13204,000;46,29112
1144,11; 7337,000; 2181,000;13375,000;46,06039
1148,51; 7449,000; 2244,000;13522,000;46,15180
1152,90; 7550,000; 2301,000;13707,000;46,01964
1157,29; 7288,000; 2006,000;13470,000;46,07467
1161,68; 7598,000; 2262,000;13824,000;46,15118
1166,06; 7584,000; 2248,000;13803,000;46,17914
1170,44; 7786,000; 2494,000;13961,000;46,14982
1174,81; 7365,000; 2196,000;13387,000;46,18890
1179,18; 7528,000; 2339,000;13505,000;46,47143
1183,54; 7661,000; 2531,000;13570,000;46,47160
1187,90; 7686,000; 2580,000;13523,000;46,65997
1192,25; 7435,000; 2379,000;13172,000;46,84518
1196,60; 7224,000; 2222,000;12903,000;46,83082
1200,94; 7426,000; 2485,000;12994,000;47,01684
1205,28; 7128,000; 2285,000;12529,000;47,27645
1209,62; 7251,000; 2418,000;12639,000;47,28500
1213,95; 7329,000; 2543,000;12596,000;47,60768
1218,27; 6866,000; 2113,000;12057,000;47,79767
1222,59; 7353,000; 2762,000;12319,000;48,03809
1226,91; 7100,000; 2482,000;12036,000;48,33578
1231,22; 6789,000; 2269,000;11621,000;48,33191
1235,52; 6368,000; 1935,000;11126,000;48,23197
1239,82; 6731,000; 2360,000;11354,000;48,59907
1244,12; 6434,000; 2191,000;10953,000;48,42502
1248,41; 6716,000; 2519,000;11152,000;48,61578
1252,70; 5938,000; 1808,000;10246,000;48,94525
1256,98; 6208,000; 2069,000;10481,000;49,20352
1261,26; 6653,000; 2578,000;10887,000;49,04321
1265,53; 5913,000; 1911,000;10040,000;49,23115
1269,80; 6100,000; 2085,000;10196,000;49,50068
1274,06; 6419,000; 2472,000;10429,000;49,60412
1278,32; 6160,000; 2246,000;10116,000;49,73316
1282,57; 6208,000; 2315,000;10115,000;49,91026
1286,82; 6052,000; 2159,000; 9878,000;50,43399
1291,06; 6258,000; 2434,000; 9974,000;50,71618
1295,30; 6183,000; 2354,000; 9886,000;50,83643
1299,53; 6348,000; 2461,000;10030,000;51,35421
1303,76; 6148,000; 2315,000; 9771,000;51,40826
1307,99; 6444,000; 2633,000;10041,000;51,44438
1312,20; 6333,000; 2539,000; 9875,000;51,71756
1316,42; 5857,000; 2175,000; 9339,000;51,39587
1320,63; 5890,000; 2246,000; 9303,000;51,63667
1324,83; 5468,000; 1875,000; 8811,000;51,80219
1329,03; 5878,000; 2294,000; 9122,000;52,48975
1333,23; 5648,000; 2137,000; 8853,000;52,27814
1337,42; 5932,000; 2453,000; 9095,000;52,37880
1341,60; 5471,000; 2063,000; 8573,000;52,35023
1345,78; 5774,000; 2407,000; 8779,000;52,84055
1349,96; 5317,000; 1977,000; 8295,000;52,86483
1354,13; 5522,000; 2218,000; 8428,000;53,20451
1358,29; 5308,000; 2040,000; 8181,000;53,21609
1362,46; 5603,000; 2455,000; 8370,000;53,22063
1366,61; 5481,000; 2409,000; 8197,000;53,07533
1370,76; 5118,000; 2106,000; 7751,000;53,35695
1374,91; 5603,000; 2653,000; 8072,000;54,43809
1379,05; 4880,000; 2056,000; 7236,000;54,51737
1383,18; 5793,000; 2983,000; 8057,000;55,38037
1387,32; 4840,000; 2042,000; 7174,000;54,52065
1391,44; 4851,000; 2029,000; 7155,000;55,05267
1395,56; 5673,000; 2838,000; 7994,000;54,98448
1399,68; 4744,000; 1864,000; 7116,000;54,83625
1403,79; 4958,000; 2045,000; 7382,000;54,58123
1407,90; 4878,000; 1975,000; 7279,000;54,73228
1412,00; 4989,000; 2064,000; 7433,000;54,47942
1416,10; 5346,000; 2407,000; 7775,000;54,75037
1420,19; 5020,000; 2106,000; 7422,000;54,81565
1424,27; 5213,000; 2292,000; 7597,000;55,06126
1428,36; 5251,000; 2373,000; 7627,000;54,77731
1432,43; 5410,000; 2538,000; 7760,000;54,99809
1436,50; 5073,000; 2221,000; 7397,000;55,10046
1440,57; 5246,000; 2379,000; 7559,000;55,34749
1444,63; 4886,000; 2054,000; 7190,000;55,14019
1448,69; 4657,000; 1832,000; 6909,000;55,64310
1452,74; 4973,000; 2149,000; 7178,000;56,15431
1456,79; 4716,000; 1924,000; 6934,000;55,72854
1460,83; 4853,000; 2085,000; 7017,000;56,12328
1464,87; 5115,000; 2389,000; 7273,000;55,81491
1468,90; 5094,000; 2366,000; 7250,000;55,85586
1472,93; 4992,000; 2274,000; 7073,000;56,63680
1476,95; 5004,000; 2304,000; 7073,000;56,61564
1480,96; 4684,000; 2026,000; 6740,000;56,38524
1484,98; 4867,000; 2214,000; 6916,000;56,42280
1488,98; 4951,000; 2321,000; 6981,000;56,43777
1492,98; 4998,000; 2415,000; 6974,000;56,65716
1496,98; 4644,000; 2066,000; 6594,000;56,93463
1500,97; 5046,000; 2503,000; 6934,000;57,39111
1504,96; 4419,000; 1869,000; 6310,000;57,41950
1508,94; 5013,000; 2442,000; 6874,000;58,00993
1512,92; 4599,000; 2047,000; 6459,000;57,84225
1516,89; 4714,000; 2181,000; 6559,000;57,85747
1520,85; 4569,000; 2039,000; 6397,000;58,05415
1524,81; 5119,000; 2622,000; 6923,000;58,05627
1528,77; 4522,000; 1993,000; 6335,000;58,24505
1532,72; 4591,000; 2083,000; 6385,000;58,29847
1536,67; 5023,000; 2574,000; 6827,000;57,58288
1540,61; 4460,000; 2053,000; 6158,000;58,63581
1544,54; 4841,000; 2397,000; 6559,000;58,72177
1548,47; 4259,000; 1870,000; 5963,000;58,36795
1552,40; 4681,000; 2311,000; 6340,000;58,82353
1556,32; 4669,000; 2289,000; 6299,000;59,35162
1560,23; 4526,000; 2216,000; 6063,000;60,04679
1564,15; 4592,000; 2266,000; 6123,000;60,30594
1568,05; 4421,000; 2111,000; 5937,000;60,37637
1571,95; 4716,000; 2431,000; 6174,000;61,04729
1575,84; 4320,000; 2066,000; 5767,000;60,90246
1579,73; 4553,000; 2334,000; 5973,000;60,97829
1583,62; 4460,000; 2251,000; 5853,000;61,32704
1587,50; 4150,000; 1973,000; 5552,000;60,82705
1591,37; 4694,000; 2501,000; 6051,000;61,77465
1595,24; 4362,000; 2195,000; 5695,000;61,91429
1599,11; 4098,000; 1935,000; 5426,000;61,95932
1602,96; 4170,000; 2027,000; 5422,000;63,12224
1606,82; 4019,000; 1926,000; 5276,000;62,47761
1610,67; 4275,000; 2202,000; 5507,000;62,72315
1614,51; 4439,000; 2375,000; 5635,000;63,31288
1618,35; 4013,000; 1955,000; 5143,000;64,55458
1622,18; 4203,000; 2163,000; 5307,000;64,88550
1626,01; 4197,000; 2191,000; 5286,000;64,81422
1629,83; 4225,000; 2237,000; 5309,000;64,71354
1633,65; 4331,000; 2363,000; 5411,000;64,56693
1637,46; 4006,000; 2065,000; 5041,000;65,22177
1641,27; 3939,000; 2043,000; 4995,000;64,22764
1645,07; 3902,000; 2025,000; 4923,000;64,76881
1648,86; 3882,000; 2022,000; 4872,000;65,26316
1652,66; 3835,000; 2009,000; 4849,000;64,29577
1656,44; 3913,000; 2080,000; 4866,000;65,79325
1660,22; 4075,000; 2279,000; 5011,000;65,73939
1664,00; 4187,000; 2386,000; 5119,000;65,89828
1667,77; 3943,000; 2147,000; 4820,000;67,19042
1671,53; 3849,000; 2096,000; 4676,000;67,94574
1675,29; 3724,000; 1956,000; 4597,000;66,94434
1679,05; 3997,000; 2235,000; 4841,000;67,61320
1682,80; 3863,000; 2121,000; 4673,000;68,26019
1686,54; 4063,000; 2345,000; 4882,000;67,71778
1690,28; 4046,000; 2330,000; 4848,000;68,14932
1694,01; 3610,000; 1942,000; 4390,000;68,13725
1697,74; 3698,000; 2079,000; 4510,000;66,59811
1701,46; 3925,000; 2282,000; 4676,000;68,62991
1705,18; 3599,000; 2006,000; 4351,000;67,93177
1708,89; 3521,000; 1911,000; 4242,000;69,06907
1712,60; 3859,000; 2253,000; 4569,000;69,34370
1716,30; 3879,000; 2295,000; 4547,000;70,33748
1720,00; 3920,000; 2337,000; 4572,000;70,82774
1723,69; 3841,000; 2261,000; 4469,000;71,55797
1727,38; 3450,000; 1905,000; 4079,000;71,06716
1731,06; 3727,000; 2204,000; 4366,000;70,44403
1734,73; 3675,000; 2153,000; 4269,000;71,92817
1738,40; 3520,000; 1998,000; 4086,000;72,89272
1742,07; 3902,000; 2398,000; 4492,000;71,82426
1745,73; 3551,000; 2036,000; 4113,000;72,94174
1749,38; 3785,000; 2316,000; 4333,000;72,83094
1753,03; 3837,000; 2360,000; 4336,000;74,74696
1756,67; 3596,000; 2169,000; 4109,000;73,55670
1760,31; 3733,000; 2287,000; 4202,000;75,50914
1763,94; 3649,000; 2226,000; 4114,000;75,37076
1767,57; 3608,000; 2202,000; 4056,000;75,83603
1771,19; 3476,000; 2090,000; 3874,000;77,69058
1774,81; 3622,000; 2248,000; 4032,000;77,01794
1778,42; 3618,000; 2269,000; 4027,000;76,73493
1782,03; 3440,000; 2095,000; 3823,000;77,83565
1785,63; 3366,000; 2035,000; 3722,000;78,89745
1789,22; 3428,000; 2111,000; 3791,000;78,39286
1792,81; 3261,000; 1992,000; 3582,000;79,81132
1796,40; 3187,000; 1886,000; 3487,000;81,26171
1799,98; 3726,000; 2449,000; 4025,000;81,02792
1803,55; 3437,000; 2183,000; 3731,000;81,00775
1807,12; 3306,000; 2061,000; 3579,000;82,01581
1810,68; 3944,000; 2694,000; 4197,000;83,16700
1814,24; 3173,000; 1955,000; 3431,000;82,52033
1817,79; 3713,000; 2464,000; 3918,000;85,90096
1821,34; 3806,000; 2605,000; 4045,000;83,40278
1824,88; 3211,000; 2018,000; 3427,000;84,66998
1828,41; 3490,000; 2289,000; 3672,000;86,84020
1831,94; 3300,000; 2125,000; 3487,000;86,27019
1835,47; 3072,000; 1906,000; 3243,000;87,21017
1838,99; 3463,000; 2296,000; 3612,000;88,67781
1842,50; 3259,000; 2133,000; 3433,000;86,61538
1846,01; 3155,000; 2020,000; 3270,000;90,80000
1849,51; 2962,000; 1814,000; 3091,000;89,89820
1853,01; 3052,000; 1929,000; 3201,000;88,28616
1856,50; 3849,000; 2700,000; 3984,000;89,48598
1859,99; 2971,000; 1862,000; 3058,000;92,72575
1863,47; 3319,000; 2216,000; 3413,000;92,14703
1866,94; 3069,000; 2005,000; 3183,000;90,32258
1870,41; 3534,000; 2432,000; 3602,000;94,18803
1873,88; 3270,000; 2210,000; 3354,000;92,65734
1877,34; 3565,000; 2493,000; 3625,000;94,69965
1880,79; 3451,000; 2396,000; 3490,000;96,43510
1884,24; 3418,000; 2396,000; 3479,000;94,36750
1887,68; 3029,000; 2020,000; 3039,000;99,01865
1891,12; 2895,000; 1891,000; 2931,000;96,53846
1894,55; 2976,000; 2022,000; 3034,000;94,26877
1897,98; 3285,000; 2272,000; 3275,000;100,99701
1901,40; 3001,000; 2030,000; 3031,000;97,00300

