A_PETG_FCR_1
Integration time [ms]: 100,000
Averaging Nr. [scans]: 1
Smoothing Nr. [pixels]: 0
Data measured with spectrometer [name]: 1204091U1
Wave   ;Sample   ;Dark     ;Reference;Reflectance
[nm]   ;[counts] ;[counts] ;[counts] ;[%]

1014,48; 8444,000; 2159,000; 6686,000;138,83366
1019,01; 8971,000; 2263,000; 7134,000;137,71300
1023,54; 9513,000; 2460,000; 7582,000;137,70012
1028,07; 9728,000; 2357,000; 7740,000;136,93108
1032,59;10014,000; 2222,000; 7947,000;136,10480
1037,10;10556,000; 2251,000; 8409,000;134,86522
1041,62;10999,000; 2335,000; 8775,000;134,53416
1046,12;11844,000; 2824,000; 9555,000;134,00683
1050,62;11592,000; 2300,000; 9240,000;133,89049
1055,12;11781,000; 2181,000; 9387,000;133,22231
1059,62;11796,000; 2009,000; 9358,000;133,17458
1064,10;12517,000; 2401,000;10031,000;132,58191
1068,59;12974,000; 2570,000;10411,000;132,68716
1073,07;13166,000; 2356,000;10516,000;132,47549
1077,54;13304,000; 2278,000;10631,000;132,00048
1082,01;13786,000; 2486,000;11025,000;132,33400
1086,48;14114,000; 2488,000;11325,000;131,56048
1090,94;13827,000; 2081,000;10975,000;132,06656
1095,39;15161,000; 3026,000;12290,000;130,99093
1099,85;14794,000; 2345,000;11921,000;130,00209
1104,29;15119,000; 2403,000;12226,000;129,45129
1108,73;14961,000; 2060,000;12064,000;128,95842
1113,17;15761,000; 2768,000;12897,000;128,27525
1117,61;15500,000; 2351,000;12709,000;126,94536
1122,03;15911,000; 2714,000;13178,000;126,11812
1126,46;15555,000; 2237,000;12873,000;125,21625
1130,88;15638,000; 2154,000;12946,000;124,94440
1135,29;16470,000; 2780,000;13624,000;126,24493
1139,70;16184,000; 2109,000;13204,000;126,85895
1144,11;16433,000; 2181,000;13375,000;127,31821
1148,51;16595,000; 2244,000;13522,000;127,24774
1152,90;16697,000; 2301,000;13707,000;126,21427
1157,29;16455,000; 2006,000;13470,000;126,03803
1161,68;16750,000; 2262,000;13824,000;125,30704
1166,06;16644,000; 2248,000;13803,000;124,58676
1170,44;16685,000; 2494,000;13961,000;123,75512
1174,81;16010,000; 2196,000;13387,000;123,43848
1179,18;16099,000; 2339,000;13505,000;123,23124
1183,54;16091,000; 2531,000;13570,000;122,83721
1187,90;16056,000; 2580,000;13523,000;123,14722
1192,25;15696,000; 2379,000;13172,000;123,38553
1196,60;15427,000; 2222,000;12903,000;123,63075
1200,94;15523,000; 2485,000;12994,000;124,06509
1205,28;15087,000; 2285,000;12529,000;124,97071
1209,62;15200,000; 2418,000;12639,000;125,05626
1213,95;15236,000; 2543,000;12596,000;126,26082
1218,27;14725,000; 2113,000;12057,000;126,83025
1222,59;15009,000; 2762,000;12319,000;128,14691
1226,91;14765,000; 2482,000;12036,000;128,56395
1231,22;14366,000; 2269,000;11621,000;129,35201
1235,52;13896,000; 1935,000;11126,000;130,13818
1239,82;14164,000; 2360,000;11354,000;131,24305
1244,12;13726,000; 2191,000;10953,000;131,64803
1248,41;13934,000; 2519,000;11152,000;132,22518
1252,70;13025,000; 1808,000;10246,000;132,93434
1256,98;13238,000; 2069,000;10481,000;132,77461
1261,26;13706,000; 2578,000;10887,000;133,92707
1265,53;12781,000; 1911,000;10040,000;133,71878
1269,80;12959,000; 2085,000;10196,000;134,06485
1274,06;13148,000; 2472,000;10429,000;134,17117
1278,32;12821,000; 2246,000;10116,000;134,37103
1282,57;12809,000; 2315,000;10115,000;134,53846
1286,82;12548,000; 2159,000; 9878,000;134,58997
1291,06;12691,000; 2434,000; 9974,000;136,03448
1295,30;12564,000; 2354,000; 9886,000;135,55497
1299,53;12776,000; 2461,000;10030,000;136,27956
1303,76;12564,000; 2315,000; 9771,000;137,45976
1307,99;12852,000; 2633,000;10041,000;137,94546
1312,20;12657,000; 2539,000; 9875,000;137,92257
1316,42;12062,000; 2175,000; 9339,000;138,00949
1320,63;12018,000; 2246,000; 9303,000;138,47244
1324,83;11480,000; 1875,000; 8811,000;138,48039
1329,03;11746,000; 2294,000; 9122,000;138,42999
1333,23;11378,000; 2137,000; 8853,000;137,59678
1337,42;11627,000; 2453,000; 9095,000;138,12105
1341,60;11013,000; 2063,000; 8573,000;137,48080
1345,78;11174,000; 2407,000; 8779,000;137,58632
1349,96;10599,000; 1977,000; 8295,000;136,46724
1354,13;10651,000; 2218,000; 8428,000;135,79710
1358,29;10395,000; 2040,000; 8181,000;136,05276
1362,46;10522,000; 2455,000; 8370,000;136,38208
1366,61;10325,000; 2409,000; 8197,000;136,76572
1370,76; 9835,000; 2106,000; 7751,000;136,91763
1374,91;10081,000; 2653,000; 8072,000;137,07326
1379,05; 9139,000; 2056,000; 7236,000;136,73745
1383,18; 9961,000; 2983,000; 8057,000;137,52464
1387,32; 9026,000; 2042,000; 7174,000;136,08730
1391,44; 9019,000; 2029,000; 7155,000;136,36364
1395,56; 9828,000; 2838,000; 7994,000;135,57021
1399,68; 8967,000; 1864,000; 7116,000;135,24372
1403,79; 9226,000; 2045,000; 7382,000;134,55125
1407,90; 9113,000; 1975,000; 7279,000;134,57768
1412,00; 9269,000; 2064,000; 7433,000;134,19631
1416,10; 9614,000; 2407,000; 7775,000;134,25857
1420,19; 9275,000; 2106,000; 7422,000;134,85704
1424,27; 9443,000; 2292,000; 7597,000;134,79736
1428,36; 9460,000; 2373,000; 7627,000;134,88770
1432,43; 9588,000; 2538,000; 7760,000;135,00574
1436,50; 9227,000; 2221,000; 7397,000;135,35549
1440,57; 9375,000; 2379,000; 7559,000;135,05792
1444,63; 8993,000; 2054,000; 7190,000;135,10514
1448,69; 8730,000; 1832,000; 6909,000;135,86764
1452,74; 8974,000; 2149,000; 7178,000;135,71287
1456,79; 8749,000; 1924,000; 6934,000;136,22754
1460,83; 8843,000; 2085,000; 7017,000;137,02352
1464,87; 9072,000; 2389,000; 7273,000;136,83456
1468,90; 9057,000; 2366,000; 7250,000;136,99836
1472,93; 8901,000; 2274,000; 7073,000;138,09127
1476,95; 8968,000; 2304,000; 7073,000;139,73579
1480,96; 8655,000; 2026,000; 6740,000;140,62367
1484,98; 8790,000; 2214,000; 6916,000;139,85538
1488,98; 8782,000; 2321,000; 6981,000;138,64807
1492,98; 8826,000; 2415,000; 6974,000;140,62294
1496,98; 8430,000; 2066,000; 6594,000;140,54770
1500,97; 8781,000; 2503,000; 6934,000;141,68359
1504,96; 8139,000; 1869,000; 6310,000;141,18442
1508,94; 8733,000; 2442,000; 6874,000;141,94495
1512,92; 8293,000; 2047,000; 6459,000;141,56845
1516,89; 8373,000; 2181,000; 6559,000;141,43444
1520,85; 8200,000; 2039,000; 6397,000;141,37219
1524,81; 8727,000; 2622,000; 6923,000;141,94373
1528,77; 8120,000; 1993,000; 6335,000;141,11009
1532,72; 8150,000; 2083,000; 6385,000;141,02743
1536,67; 8530,000; 2574,000; 6827,000;140,04232
1540,61; 7898,000; 2053,000; 6158,000;142,38733
1544,54; 8255,000; 2397,000; 6559,000;140,74964
1548,47; 7694,000; 1870,000; 5963,000;142,29172
1552,40; 8049,000; 2311,000; 6340,000;142,41747
1556,32; 7995,000; 2289,000; 6299,000;142,29426
1560,23; 7745,000; 2216,000; 6063,000;143,72238
1564,15; 7819,000; 2266,000; 6123,000;143,97200
1568,05; 7609,000; 2111,000; 5937,000;143,70099
1571,95; 7848,000; 2431,000; 6174,000;144,72348
1575,84; 7413,000; 2066,000; 5767,000;144,47447
1579,73; 7558,000; 2334,000; 5973,000;143,55592
1583,62; 7455,000; 2251,000; 5853,000;144,47529
1587,50; 7140,000; 1973,000; 5552,000;144,36994
1591,37; 7650,000; 2501,000; 6051,000;145,04225
1595,24; 7228,000; 2195,000; 5695,000;143,80000
1599,11; 6919,000; 1935,000; 5426,000;142,76712
1602,96; 6905,000; 2027,000; 5422,000;143,68189
1606,82; 6694,000; 1926,000; 5276,000;142,32836
1610,67; 6869,000; 2202,000; 5507,000;141,21029
1614,51; 6954,000; 2375,000; 5635,000;140,46012
1618,35; 6433,000; 1955,000; 5143,000;140,46424
1622,18; 6554,000; 2163,000; 5307,000;139,66285
1626,01; 6485,000; 2191,000; 5286,000;138,73990
1629,83; 6410,000; 2237,000; 5309,000;135,83984
1633,65; 6451,000; 2363,000; 5411,000;134,12073
1637,46; 6016,000; 2065,000; 5041,000;132,76210
1641,27; 5783,000; 2043,000; 4995,000;126,69377
1645,07; 5652,000; 2025,000; 4923,000;125,15528
1648,86; 5481,000; 2022,000; 4872,000;121,36842
1652,66; 5397,000; 2009,000; 4849,000;119,29577
1656,44; 5382,000; 2080,000; 4866,000;118,52118
1660,22; 5505,000; 2279,000; 5011,000;118,08199
1664,00; 5632,000; 2386,000; 5119,000;118,77058
1667,77; 5424,000; 2147,000; 4820,000;122,59633
1671,53; 5374,000; 2096,000; 4676,000;127,05426
1675,29; 5315,000; 1956,000; 4597,000;127,18667
1679,05; 5556,000; 2235,000; 4841,000;127,43668
1682,80; 5404,000; 2121,000; 4673,000;128,64420
1686,54; 5612,000; 2345,000; 4882,000;128,77414
1690,28; 5645,000; 2330,000; 4848,000;131,65210
1694,01; 5145,000; 1942,000; 4390,000;130,84150
1697,74; 5252,000; 2079,000; 4510,000;130,52242
1701,46; 5420,000; 2282,000; 4676,000;131,07769
1705,18; 5036,000; 2006,000; 4351,000;129,21109
1708,89; 4924,000; 1911,000; 4242,000;129,25783
1712,60; 5212,000; 2253,000; 4569,000;127,76339
1716,30; 5222,000; 2295,000; 4547,000;129,97336
1720,00; 5246,000; 2337,000; 4572,000;130,15660
1723,69; 5118,000; 2261,000; 4469,000;129,39312
1727,38; 4720,000; 1905,000; 4079,000;129,48482
1731,06; 5058,000; 2204,000; 4366,000;132,00740
1734,73; 4961,000; 2153,000; 4269,000;132,70321
1738,40; 4849,000; 1998,000; 4086,000;136,54215
1742,07; 5235,000; 2398,000; 4492,000;135,48233
1745,73; 4878,000; 2036,000; 4113,000;136,83197
1749,38; 5129,000; 2316,000; 4333,000;139,46455
1753,03; 5128,000; 2360,000; 4336,000;140,08097
1756,67; 4908,000; 2169,000; 4109,000;141,18557
1760,31; 4991,000; 2287,000; 4202,000;141,20104
1763,94; 4909,000; 2226,000; 4114,000;142,10805
1767,57; 4860,000; 2202,000; 4056,000;143,36570
1771,19; 4702,000; 2090,000; 3874,000;146,41256
1774,81; 4814,000; 2248,000; 4032,000;143,83408
1778,42; 4819,000; 2269,000; 4027,000;145,05119
1782,03; 4602,000; 2095,000; 3823,000;145,08102
1785,63; 4518,000; 2035,000; 3722,000;147,18435
1789,22; 4535,000; 2111,000; 3791,000;144,28571
1792,81; 4375,000; 1992,000; 3582,000;149,87421
1796,40; 4281,000; 1886,000; 3487,000;149,59400
1799,98; 4821,000; 2449,000; 4025,000;150,50761
1803,55; 4553,000; 2183,000; 3731,000;153,10078
1807,12; 4373,000; 2061,000; 3579,000;152,30567
1810,68; 5007,000; 2694,000; 4197,000;153,89222
1814,24; 4252,000; 1955,000; 3431,000;155,62331
1817,79; 4734,000; 2464,000; 3918,000;156,12105
1821,34; 4850,000; 2605,000; 4045,000;155,90278
1824,88; 4232,000; 2018,000; 3427,000;157,13272
1828,41; 4487,000; 2289,000; 3672,000;158,92986
1831,94; 4304,000; 2125,000; 3487,000;159,98532
1835,47; 4053,000; 1906,000; 3243,000;160,58340
1838,99; 4437,000; 2296,000; 3612,000;162,68997
1842,50; 4242,000; 2133,000; 3433,000;162,23077
1846,01; 4099,000; 2020,000; 3270,000;166,32000
1849,51; 3874,000; 1814,000; 3091,000;161,31558
1853,01; 3972,000; 1929,000; 3201,000;160,61321
1856,50; 4772,000; 2700,000; 3984,000;161,37072
1859,99; 3871,000; 1862,000; 3058,000;167,97659
1863,47; 4191,000; 2216,000; 3413,000;164,99582
1866,94; 3935,000; 2005,000; 3183,000;163,83701
1870,41; 4334,000; 2432,000; 3602,000;162,56410
1873,88; 4112,000; 2210,000; 3354,000;166,25874
1877,34; 4381,000; 2493,000; 3625,000;166,78445
1880,79; 4253,000; 2396,000; 3490,000;169,74406
1884,24; 4203,000; 2396,000; 3479,000;166,85134
1887,68; 3801,000; 2020,000; 3039,000;174,77920
1891,12; 3666,000; 1891,000; 2931,000;170,67308
1894,55; 3768,000; 2022,000; 3034,000;172,52964
1897,98; 4022,000; 2272,000; 3275,000;174,47657
1901,40; 3739,000; 2030,000; 3031,000;170,72927

