B_PACF_FCR_1
Integration time [ms]: 100,000
Averaging Nr. [scans]: 1
Smoothing Nr. [pixels]: 0
Data measured with spectrometer [name]: 1204091U1
Wave   ;Sample   ;Dark     ;Reference;Reflectance
[nm]   ;[counts] ;[counts] ;[counts] ;[%]

1014,48; 4005,000; 2159,000; 6686,000;40,77756
1019,01; 4191,000; 2263,000; 7134,000;39,58119
1023,54; 4475,000; 2460,000; 7582,000;39,34010
1028,07; 4447,000; 2357,000; 7740,000;38,82593
1032,59; 4404,000; 2222,000; 7947,000;38,11354
1037,10; 4586,000; 2251,000; 8409,000;37,91816
1041,62; 4739,000; 2335,000; 8775,000;37,32919
1046,12; 5319,000; 2824,000; 9555,000;37,06730
1050,62; 4851,000; 2300,000; 9240,000;36,75793
1055,12; 4788,000; 2181,000; 9387,000;36,17818
1059,62; 4667,000; 2009,000; 9358,000;36,16819
1064,10; 5133,000; 2401,000;10031,000;35,80603
1068,59; 5391,000; 2570,000;10411,000;35,97755
1073,07; 5269,000; 2356,000;10516,000;35,69853
1077,54; 5280,000; 2278,000;10631,000;35,93918
1082,01; 5561,000; 2486,000;11025,000;36,01124
1086,48; 5640,000; 2488,000;11325,000;35,66821
1090,94; 5247,000; 2081,000;10975,000;35,59703
1095,39; 6338,000; 3026,000;12290,000;35,75130
1099,85; 5730,000; 2345,000;11921,000;35,34879
1104,29; 5870,000; 2403,000;12226,000;35,29472
1108,73; 5596,000; 2060,000;12064,000;35,34586
1113,17; 6357,000; 2768,000;12897,000;35,43292
1117,61; 5999,000; 2351,000;12709,000;35,21915
1122,03; 6401,000; 2714,000;13178,000;35,23509
1126,46; 5977,000; 2237,000;12873,000;35,16360
1130,88; 5968,000; 2154,000;12946,000;35,34099
1135,29; 6598,000; 2780,000;13624,000;35,20841
1139,70; 6015,000; 2109,000;13204,000;35,20505
1144,11; 6124,000; 2181,000;13375,000;35,22423
1148,51; 6230,000; 2244,000;13522,000;35,34315
1152,90; 6292,000; 2301,000;13707,000;34,99036
1157,29; 5999,000; 2006,000;13470,000;34,83077
1161,68; 6293,000; 2262,000;13824,000;34,86421
1166,06; 6308,000; 2248,000;13803,000;35,13630
1170,44; 6513,000; 2494,000;13961,000;35,04840
1174,81; 6146,000; 2196,000;13387,000;35,29622
1179,18; 6265,000; 2339,000;13505,000;35,16031
1183,54; 6410,000; 2531,000;13570,000;35,13905
1187,90; 6464,000; 2580,000;13523,000;35,49301
1192,25; 6244,000; 2379,000;13172,000;35,81025
1196,60; 6061,000; 2222,000;12903,000;35,94233
1200,94; 6286,000; 2485,000;12994,000;36,16900
1205,28; 6029,000; 2285,000;12529,000;36,54822
1209,62; 6124,000; 2418,000;12639,000;36,25868
1213,95; 6226,000; 2543,000;12596,000;36,63583
1218,27; 5730,000; 2113,000;12057,000;36,37369
1222,59; 6271,000; 2762,000;12319,000;36,71654
1226,91; 6008,000; 2482,000;12036,000;36,90601
1231,22; 5736,000; 2269,000;11621,000;37,07228
1235,52; 5361,000; 1935,000;11126,000;37,27560
1239,82; 5715,000; 2360,000;11354,000;37,30265
1244,12; 5483,000; 2191,000;10953,000;37,57133
1248,41; 5756,000; 2519,000;11152,000;37,49566
1252,70; 4984,000; 1808,000;10246,000;37,63925
1256,98; 5232,000; 2069,000;10481,000;37,60105
1261,26; 5711,000; 2578,000;10887,000;37,70610
1265,53; 4985,000; 1911,000;10040,000;37,81523
1269,80; 5148,000; 2085,000;10196,000;37,76353
1274,06; 5506,000; 2472,000;10429,000;38,12995
1278,32; 5240,000; 2246,000;10116,000;38,04320
1282,57; 5289,000; 2315,000;10115,000;38,12821
1286,82; 5122,000; 2159,000; 9878,000;38,38580
1291,06; 5340,000; 2434,000; 9974,000;38,54111
1295,30; 5269,000; 2354,000; 9886,000;38,70154
1299,53; 5406,000; 2461,000;10030,000;38,90871
1303,76; 5222,000; 2315,000; 9771,000;38,98873
1307,99; 5535,000; 2633,000;10041,000;39,17387
1312,20; 5440,000; 2539,000; 9875,000;39,54471
1316,42; 5016,000; 2175,000; 9339,000;39,65662
1320,63; 5049,000; 2246,000; 9303,000;39,71943
1324,83; 4645,000; 1875,000; 8811,000;39,93656
1329,03; 5061,000; 2294,000; 9122,000;40,52431
1333,23; 4828,000; 2137,000; 8853,000;40,06849
1337,42; 5132,000; 2453,000; 9095,000;40,33424
1341,60; 4682,000; 2063,000; 8573,000;40,23041
1345,78; 4992,000; 2407,000; 8779,000;40,56811
1349,96; 4524,000; 1977,000; 8295,000;40,31339
1354,13; 4728,000; 2218,000; 8428,000;40,41868
1358,29; 4538,000; 2040,000; 8181,000;40,67741
1362,46; 4867,000; 2455,000; 8370,000;40,77768
1366,61; 4790,000; 2409,000; 8197,000;41,13683
1370,76; 4462,000; 2106,000; 7751,000;41,73605
1374,91; 4946,000; 2653,000; 8072,000;42,31408
1379,05; 4267,000; 2056,000; 7236,000;42,68340
1383,18; 5163,000; 2983,000; 8057,000;42,96413
1387,32; 4235,000; 2042,000; 7174,000;42,73188
1391,44; 4231,000; 2029,000; 7155,000;42,95747
1395,56; 5041,000; 2838,000; 7994,000;42,72692
1399,68; 4085,000; 1864,000; 7116,000;42,28865
1403,79; 4293,000; 2045,000; 7382,000;42,12104
1407,90; 4225,000; 1975,000; 7279,000;42,42081
1412,00; 4329,000; 2064,000; 7433,000;42,18663
1416,10; 4730,000; 2407,000; 7775,000;43,27496
1420,19; 4382,000; 2106,000; 7422,000;42,81415
1424,27; 4578,000; 2292,000; 7597,000;43,09142
1428,36; 4642,000; 2373,000; 7627,000;43,18614
1432,43; 4792,000; 2538,000; 7760,000;43,16354
1436,50; 4471,000; 2221,000; 7397,000;43,46986
1440,57; 4603,000; 2379,000; 7559,000;42,93436
1444,63; 4265,000; 2054,000; 7190,000;43,04907
1448,69; 4029,000; 1832,000; 6909,000;43,27359
1452,74; 4328,000; 2149,000; 7178,000;43,32869
1456,79; 4101,000; 1924,000; 6934,000;43,45309
1460,83; 4243,000; 2085,000; 7017,000;43,75507
1464,87; 4526,000; 2389,000; 7273,000;43,75512
1468,90; 4494,000; 2366,000; 7250,000;43,57084
1472,93; 4426,000; 2274,000; 7073,000;44,84268
1476,95; 4422,000; 2304,000; 7073,000;44,41183
1480,96; 4119,000; 2026,000; 6740,000;44,39966
1484,98; 4309,000; 2214,000; 6916,000;44,55551
1488,98; 4397,000; 2321,000; 6981,000;44,54936
1492,98; 4453,000; 2415,000; 6974,000;44,70279
1496,98; 4087,000; 2066,000; 6594,000;44,63339
1500,97; 4443,000; 2503,000; 6934,000;43,78244
1504,96; 3852,000; 1869,000; 6310,000;44,65211
1508,94; 4416,000; 2442,000; 6874,000;44,53971
1512,92; 4004,000; 2047,000; 6459,000;44,35630
1516,89; 4143,000; 2181,000; 6559,000;44,81498
1520,85; 4009,000; 2039,000; 6397,000;45,20422
1524,81; 4578,000; 2622,000; 6923,000;45,47780
1528,77; 3962,000; 1993,000; 6335,000;45,34777
1532,72; 4046,000; 2083,000; 6385,000;45,62994
1536,67; 4501,000; 2574,000; 6827,000;45,30919
1540,61; 3952,000; 2053,000; 6158,000;46,26066
1544,54; 4319,000; 2397,000; 6559,000;46,17972
1548,47; 3737,000; 1870,000; 5963,000;45,61446
1552,40; 4165,000; 2311,000; 6340,000;46,01638
1556,32; 4140,000; 2289,000; 6299,000;46,15960
1560,23; 4010,000; 2216,000; 6063,000;46,63374
1564,15; 4067,000; 2266,000; 6123,000;46,69432
1568,05; 3918,000; 2111,000; 5937,000;47,22948
1571,95; 4220,000; 2431,000; 6174,000;47,79589
1575,84; 3852,000; 2066,000; 5767,000;48,25723
1579,73; 4097,000; 2334,000; 5973,000;48,44738
1583,62; 3997,000; 2251,000; 5853,000;48,47307
1587,50; 3713,000; 1973,000; 5552,000;48,61693
1591,37; 4230,000; 2501,000; 6051,000;48,70423
1595,24; 3932,000; 2195,000; 5695,000;49,62857
1599,11; 3640,000; 1935,000; 5426,000;48,83987
1602,96; 3704,000; 2027,000; 5422,000;49,39617
1606,82; 3570,000; 1926,000; 5276,000;49,07463
1610,67; 3829,000; 2202,000; 5507,000;49,22844
1614,51; 3982,000; 2375,000; 5635,000;49,29448
1618,35; 3560,000; 1955,000; 5143,000;50,34504
1622,18; 3776,000; 2163,000; 5307,000;51,30407
1626,01; 3765,000; 2191,000; 5286,000;50,85622
1629,83; 3810,000; 2237,000; 5309,000;51,20443
1633,65; 3927,000; 2363,000; 5411,000;51,31234
1637,46; 3630,000; 2065,000; 5041,000;52,58737
1641,27; 3584,000; 2043,000; 4995,000;52,20190
1645,07; 3544,000; 2025,000; 4923,000;52,41546
1648,86; 3529,000; 2022,000; 4872,000;52,87719
1652,66; 3493,000; 2009,000; 4849,000;52,25352
1656,44; 3561,000; 2080,000; 4866,000;53,15865
1660,22; 3752,000; 2279,000; 5011,000;53,91654
1664,00; 3840,000; 2386,000; 5119,000;53,20161
1667,77; 3578,000; 2147,000; 4820,000;53,53535
1671,53; 3538,000; 2096,000; 4676,000;55,89147
1675,29; 3368,000; 1956,000; 4597,000;53,46460
1679,05; 3646,000; 2235,000; 4841,000;54,14428
1682,80; 3506,000; 2121,000; 4673,000;54,27116
1686,54; 3737,000; 2345,000; 4882,000;54,86795
1690,28; 3713,000; 2330,000; 4848,000;54,92454
1694,01; 3274,000; 1942,000; 4390,000;54,41176
1697,74; 3417,000; 2079,000; 4510,000;55,03908
1701,46; 3593,000; 2282,000; 4676,000;54,76190
1705,18; 3290,000; 2006,000; 4351,000;54,75480
1708,89; 3216,000; 1911,000; 4242,000;55,98456
1712,60; 3569,000; 2253,000; 4569,000;56,82211
1716,30; 3592,000; 2295,000; 4547,000;57,59325
1720,00; 3636,000; 2337,000; 4572,000;58,12081
1723,69; 3545,000; 2261,000; 4469,000;58,15217
1727,38; 3168,000; 1905,000; 4079,000;58,09568
1731,06; 3468,000; 2204,000; 4366,000;58,46438
1734,73; 3410,000; 2153,000; 4269,000;59,40454
1738,40; 3250,000; 1998,000; 4086,000;59,96169
1742,07; 3642,000; 2398,000; 4492,000;59,40783
1745,73; 3286,000; 2036,000; 4113,000;60,18296
1749,38; 3540,000; 2316,000; 4333,000;60,68418
1753,03; 3569,000; 2360,000; 4336,000;61,18421
1756,67; 3351,000; 2169,000; 4109,000;60,92784
1760,31; 3479,000; 2287,000; 4202,000;62,24543
1763,94; 3375,000; 2226,000; 4114,000;60,85805
1767,57; 3382,000; 2202,000; 4056,000;63,64617
1771,19; 3228,000; 2090,000; 3874,000;63,78924
1774,81; 3387,000; 2248,000; 4032,000;63,84529
1778,42; 3391,000; 2269,000; 4027,000;63,82253
1782,03; 3223,000; 2095,000; 3823,000;65,27778
1785,63; 3147,000; 2035,000; 3722,000;65,91583
1789,22; 3206,000; 2111,000; 3791,000;65,17857
1792,81; 3055,000; 1992,000; 3582,000;66,85535
1796,40; 2973,000; 1886,000; 3487,000;67,89507
1799,98; 3515,000; 2449,000; 4025,000;67,63959
1803,55; 3243,000; 2183,000; 3731,000;68,47545
1807,12; 3103,000; 2061,000; 3579,000;68,64295
1810,68; 3743,000; 2694,000; 4197,000;69,79375
1814,24; 2984,000; 1955,000; 3431,000;69,71545
1817,79; 3477,000; 2464,000; 3918,000;69,66988
1821,34; 3621,000; 2605,000; 4045,000;70,55556
1824,88; 3027,000; 2018,000; 3427,000;71,61107
1828,41; 3285,000; 2289,000; 3672,000;72,01735
1831,94; 3120,000; 2125,000; 3487,000;73,05433
1835,47; 2890,000; 1906,000; 3243,000;73,59761
1838,99; 3268,000; 2296,000; 3612,000;73,86018
1842,50; 3081,000; 2133,000; 3433,000;72,92308
1846,01; 2962,000; 2020,000; 3270,000;75,36000
1849,51; 2756,000; 1814,000; 3091,000;73,76664
1853,01; 2851,000; 1929,000; 3201,000;72,48428
1856,50; 3654,000; 2700,000; 3984,000;74,29907
1859,99; 2788,000; 1862,000; 3058,000;77,42475
1863,47; 3151,000; 2216,000; 3413,000;78,11195
1866,94; 2902,000; 2005,000; 3183,000;76,14601
1870,41; 3347,000; 2432,000; 3602,000;78,20513
1873,88; 3101,000; 2210,000; 3354,000;77,88462
1877,34; 3414,000; 2493,000; 3625,000;81,36042
1880,79; 3279,000; 2396,000; 3490,000;80,71298
1884,24; 3281,000; 2396,000; 3479,000;81,71745
1887,68; 2887,000; 2020,000; 3039,000;85,08342
1891,12; 2760,000; 1891,000; 2931,000;83,55769
1894,55; 2877,000; 2022,000; 3034,000;84,48617
1897,98; 3129,000; 2272,000; 3275,000;85,44367
1901,40; 2880,000; 2030,000; 3031,000;84,91508

