B_PC_FCR_1
Integration time [ms]: 100,000
Averaging Nr. [scans]: 1
Smoothing Nr. [pixels]: 0
Data measured with spectrometer [name]: 1204091U1
Wave   ;Sample   ;Dark     ;Reference;Reflectance
[nm]   ;[counts] ;[counts] ;[counts] ;[%]

1014,48; 8502,000; 2159,000; 6686,000;140,11487
1019,01; 9055,000; 2263,000; 7134,000;139,43749
1023,54; 9595,000; 2460,000; 7582,000;139,30105
1028,07; 9793,000; 2357,000; 7740,000;138,13858
1032,59;10063,000; 2222,000; 7947,000;136,96070
1037,10;10633,000; 2251,000; 8409,000;136,11562
1041,62;11057,000; 2335,000; 8775,000;135,43478
1046,12;11919,000; 2824,000; 9555,000;135,12108
1050,62;11656,000; 2300,000; 9240,000;134,81268
1055,12;11831,000; 2181,000; 9387,000;133,91618
1059,62;11870,000; 2009,000; 9358,000;134,18152
1064,10;12598,000; 2401,000;10031,000;133,64351
1068,59;13029,000; 2570,000;10411,000;133,38860
1073,07;13214,000; 2356,000;10516,000;133,06373
1077,54;13363,000; 2278,000;10631,000;132,70681
1082,01;13803,000; 2486,000;11025,000;132,53308
1086,48;14139,000; 2488,000;11325,000;131,84339
1090,94;13794,000; 2081,000;10975,000;131,69553
1095,39;15109,000; 3026,000;12290,000;130,42962
1099,85;14739,000; 2345,000;11921,000;129,42774
1104,29;15013,000; 2403,000;12226,000;128,37219
1108,73;14803,000; 2060,000;12064,000;127,37905
1113,17;15515,000; 2768,000;12897,000;125,84658
1117,61;15238,000; 2351,000;12709,000;124,41591
1122,03;15575,000; 2714,000;13178,000;122,90711
1126,46;15144,000; 2237,000;12873,000;121,35201
1130,88;15123,000; 2154,000;12946,000;120,17235
1135,29;15849,000; 2780,000;13624,000;120,51826
1139,70;15555,000; 2109,000;13204,000;121,18973
1144,11;15831,000; 2181,000;13375,000;121,94033
1148,51;16098,000; 2244,000;13522,000;122,84093
1152,90;16317,000; 2301,000;13707,000;122,88269
1157,29;16138,000; 2006,000;13470,000;123,27285
1161,68;16425,000; 2262,000;13824,000;122,49611
1166,06;16345,000; 2248,000;13803,000;121,99913
1170,44;16351,000; 2494,000;13961,000;120,84242
1174,81;15702,000; 2196,000;13387,000;120,68627
1179,18;15741,000; 2339,000;13505,000;120,02508
1183,54;15714,000; 2531,000;13570,000;119,42205
1187,90;15710,000; 2580,000;13523,000;119,98538
1192,25;15409,000; 2379,000;13172,000;120,72640
1196,60;15239,000; 2222,000;12903,000;121,87061
1200,94;15440,000; 2485,000;12994,000;123,27529
1205,28;15085,000; 2285,000;12529,000;124,95119
1209,62;15211,000; 2418,000;12639,000;125,16388
1213,95;15264,000; 2543,000;12596,000;126,53934
1218,27;14747,000; 2113,000;12057,000;127,05149
1222,59;14996,000; 2762,000;12319,000;128,01088
1226,91;14774,000; 2482,000;12036,000;128,65815
1231,22;14377,000; 2269,000;11621,000;129,46963
1235,52;13888,000; 1935,000;11126,000;130,05114
1239,82;14155,000; 2360,000;11354,000;131,14298
1244,12;13724,000; 2191,000;10953,000;131,62520
1248,41;13965,000; 2519,000;11152,000;132,58427
1252,70;13022,000; 1808,000;10246,000;132,89879
1256,98;13264,000; 2069,000;10481,000;133,08369
1261,26;13695,000; 2578,000;10887,000;133,79468
1265,53;12826,000; 1911,000;10040,000;134,27236
1269,80;12992,000; 2085,000;10196,000;134,47171
1274,06;13199,000; 2472,000;10429,000;134,81212
1278,32;12894,000; 2246,000;10116,000;135,29860
1282,57;12883,000; 2315,000;10115,000;135,48718
1286,82;12663,000; 2159,000; 9878,000;136,07980
1291,06;12734,000; 2434,000; 9974,000;136,60477
1295,30;12669,000; 2354,000; 9886,000;136,94902
1299,53;12871,000; 2461,000;10030,000;137,53468
1303,76;12667,000; 2315,000; 9771,000;138,84120
1307,99;12891,000; 2633,000;10041,000;138,47192
1312,20;12757,000; 2539,000; 9875,000;139,28571
1316,42;12156,000; 2175,000; 9339,000;139,32161
1320,63;12077,000; 2246,000; 9303,000;139,30849
1324,83;11541,000; 1875,000; 8811,000;139,35986
1329,03;11863,000; 2294,000; 9122,000;140,14353
1333,23;11526,000; 2137,000; 8853,000;139,80048
1337,42;11722,000; 2453,000; 9095,000;139,55134
1341,60;11150,000; 2063,000; 8573,000;139,58525
1345,78;11298,000; 2407,000; 8779,000;139,53233
1349,96;10707,000; 1977,000; 8295,000;138,17664
1354,13;10805,000; 2218,000; 8428,000;138,27697
1358,29;10531,000; 2040,000; 8181,000;138,26738
1362,46;10603,000; 2455,000; 8370,000;137,75148
1366,61;10419,000; 2409,000; 8197,000;138,38977
1370,76; 9947,000; 2106,000; 7751,000;138,90168
1374,91;10184,000; 2653,000; 8072,000;138,97398
1379,05; 9263,000; 2056,000; 7236,000;139,13127
1383,18;10023,000; 2983,000; 8057,000;138,74655
1387,32; 9101,000; 2042,000; 7174,000;137,54871
1391,44; 9095,000; 2029,000; 7155,000;137,84627
1395,56; 9926,000; 2838,000; 7994,000;137,47091
1399,68; 9081,000; 1864,000; 7116,000;137,41432
1403,79; 9341,000; 2045,000; 7382,000;136,70601
1407,90; 9280,000; 1975,000; 7279,000;137,72624
1412,00; 9417,000; 2064,000; 7433,000;136,95288
1416,10; 9799,000; 2407,000; 7775,000;137,70492
1420,19; 9464,000; 2106,000; 7422,000;138,41234
1424,27; 9628,000; 2292,000; 7597,000;138,28464
1428,36; 9672,000; 2373,000; 7627,000;138,92273
1432,43; 9778,000; 2538,000; 7760,000;138,64420
1436,50; 9423,000; 2221,000; 7397,000;139,14219
1440,57; 9570,000; 2379,000; 7559,000;138,82239
1444,63; 9200,000; 2054,000; 7190,000;139,13551
1448,69; 8942,000; 1832,000; 6909,000;140,04333
1452,74; 9211,000; 2149,000; 7178,000;140,42553
1456,79; 8921,000; 1924,000; 6934,000;139,66068
1460,83; 9011,000; 2085,000; 7017,000;140,42985
1464,87; 9236,000; 2389,000; 7273,000;140,19247
1468,90; 9275,000; 2366,000; 7250,000;141,46192
1472,93; 9079,000; 2274,000; 7073,000;141,80038
1476,95; 9090,000; 2304,000; 7073,000;142,29398
1480,96; 8763,000; 2026,000; 6740,000;142,91472
1484,98; 8958,000; 2214,000; 6916,000;143,42833
1488,98; 8915,000; 2321,000; 6981,000;141,50215
1492,98; 8881,000; 2415,000; 6974,000;141,82935
1496,98; 8493,000; 2066,000; 6594,000;141,93905
1500,97; 8871,000; 2503,000; 6934,000;143,71474
1504,96; 8209,000; 1869,000; 6310,000;142,76064
1508,94; 8819,000; 2442,000; 6874,000;143,88538
1512,92; 8402,000; 2047,000; 6459,000;144,03898
1516,89; 8464,000; 2181,000; 6559,000;143,51302
1520,85; 8317,000; 2039,000; 6397,000;144,05691
1524,81; 8832,000; 2622,000; 6923,000;144,38503
1528,77; 8253,000; 1993,000; 6335,000;144,17319
1532,72; 8301,000; 2083,000; 6385,000;144,53742
1536,67; 8682,000; 2574,000; 6827,000;143,61627
1540,61; 8002,000; 2053,000; 6158,000;144,92083
1544,54; 8374,000; 2397,000; 6559,000;143,60884
1548,47; 7802,000; 1870,000; 5963,000;144,93037
1552,40; 8180,000; 2311,000; 6340,000;145,66890
1556,32; 8121,000; 2289,000; 6299,000;145,43641
1560,23; 7847,000; 2216,000; 6063,000;146,37380
1564,15; 7897,000; 2266,000; 6123,000;145,99430
1568,05; 7691,000; 2111,000; 5937,000;145,84422
1571,95; 7918,000; 2431,000; 6174,000;146,59364
1575,84; 7518,000; 2066,000; 5767,000;147,31154
1579,73; 7689,000; 2334,000; 5973,000;147,15581
1583,62; 7532,000; 2251,000; 5853,000;146,61299
1587,50; 7191,000; 1973,000; 5552,000;145,79491
1591,37; 7639,000; 2501,000; 6051,000;144,73239
1595,24; 7241,000; 2195,000; 5695,000;144,17143
1599,11; 6990,000; 1935,000; 5426,000;144,80092
1602,96; 6938,000; 2027,000; 5422,000;144,65390
1606,82; 6789,000; 1926,000; 5276,000;145,16418
1610,67; 6953,000; 2202,000; 5507,000;143,75189
1614,51; 6986,000; 2375,000; 5635,000;141,44172
1618,35; 6475,000; 1955,000; 5143,000;141,78168
1622,18; 6585,000; 2163,000; 5307,000;140,64885
1626,01; 6520,000; 2191,000; 5286,000;139,87076
1629,83; 6520,000; 2237,000; 5309,000;139,42057
1633,65; 6519,000; 2363,000; 5411,000;136,35171
1637,46; 6105,000; 2065,000; 5041,000;135,75269
1641,27; 5956,000; 2043,000; 4995,000;132,55420
1645,07; 5770,000; 2025,000; 4923,000;129,22705
1648,86; 5654,000; 2022,000; 4872,000;127,43860
1652,66; 5589,000; 2009,000; 4849,000;126,05634
1656,44; 5514,000; 2080,000; 4866,000;123,25915
1660,22; 5620,000; 2279,000; 5011,000;122,29136
1664,00; 5725,000; 2386,000; 5119,000;122,17344
1667,77; 5429,000; 2147,000; 4820,000;122,78339
1671,53; 5358,000; 2096,000; 4676,000;126,43411
1675,29; 5325,000; 1956,000; 4597,000;127,56532
1679,05; 5590,000; 2235,000; 4841,000;128,74137
1682,80; 5406,000; 2121,000; 4673,000;128,72257
1686,54; 5566,000; 2345,000; 4882,000;126,96098
1690,28; 5563,000; 2330,000; 4848,000;128,39555
1694,01; 5100,000; 1942,000; 4390,000;129,00327
1697,74; 5283,000; 2079,000; 4510,000;131,79761
1701,46; 5413,000; 2282,000; 4676,000;130,78530
1705,18; 5127,000; 2006,000; 4351,000;133,09168
1708,89; 5021,000; 1911,000; 4242,000;133,41913
1712,60; 5356,000; 2253,000; 4569,000;133,98100
1716,30; 5365,000; 2295,000; 4547,000;136,32327
1720,00; 5374,000; 2337,000; 4572,000;135,88367
1723,69; 5275,000; 2261,000; 4469,000;136,50362
1727,38; 4878,000; 1905,000; 4079,000;136,75253
1731,06; 5104,000; 2204,000; 4366,000;134,13506
1734,73; 5038,000; 2153,000; 4269,000;136,34216
1738,40; 4879,000; 1998,000; 4086,000;137,97893
1742,07; 5285,000; 2398,000; 4492,000;137,87011
1745,73; 4955,000; 2036,000; 4113,000;140,53924
1749,38; 5184,000; 2316,000; 4333,000;142,19137
1753,03; 5205,000; 2360,000; 4336,000;143,97773
1756,67; 4995,000; 2169,000; 4109,000;145,67010
1760,31; 5064,000; 2287,000; 4202,000;145,01305
1763,94; 4999,000; 2226,000; 4114,000;146,87500
1767,57; 4908,000; 2202,000; 4056,000;145,95469
1771,19; 4758,000; 2090,000; 3874,000;149,55157
1774,81; 4893,000; 2248,000; 4032,000;148,26233
1778,42; 4870,000; 2269,000; 4027,000;147,95222
1782,03; 4697,000; 2095,000; 3823,000;150,57870
1785,63; 4592,000; 2035,000; 3722,000;151,57084
1789,22; 4657,000; 2111,000; 3791,000;151,54762
1792,81; 4446,000; 1992,000; 3582,000;154,33962
1796,40; 4337,000; 1886,000; 3487,000;153,09182
1799,98; 4876,000; 2449,000; 4025,000;153,99746
1803,55; 4608,000; 2183,000; 3731,000;156,65375
1807,12; 4436,000; 2061,000; 3579,000;156,45586
1810,68; 5037,000; 2694,000; 4197,000;155,88822
1814,24; 4282,000; 1955,000; 3431,000;157,65583
1817,79; 4706,000; 2464,000; 3918,000;154,19532
1821,34; 4834,000; 2605,000; 4045,000;154,79167
1824,88; 4242,000; 2018,000; 3427,000;157,84244
1828,41; 4492,000; 2289,000; 3672,000;159,29140
1831,94; 4343,000; 2125,000; 3487,000;162,84875
1835,47; 4111,000; 1906,000; 3243,000;164,92147
1838,99; 4439,000; 2296,000; 3612,000;162,84195
1842,50; 4293,000; 2133,000; 3433,000;166,15385
1846,01; 4148,000; 2020,000; 3270,000;170,24000
1849,51; 3933,000; 1814,000; 3091,000;165,93579
1853,01; 4005,000; 1929,000; 3201,000;163,20755
1856,50; 4777,000; 2700,000; 3984,000;161,76012
1859,99; 3896,000; 1862,000; 3058,000;170,06689
1863,47; 4238,000; 2216,000; 3413,000;168,92231
1866,94; 3956,000; 2005,000; 3183,000;165,61969
1870,41; 4352,000; 2432,000; 3602,000;164,10256
1873,88; 4154,000; 2210,000; 3354,000;169,93007
1877,34; 4406,000; 2493,000; 3625,000;168,99293
1880,79; 4257,000; 2396,000; 3490,000;170,10969
1884,24; 4226,000; 2396,000; 3479,000;168,97507
1887,68; 3806,000; 2020,000; 3039,000;175,26987
1891,12; 3657,000; 1891,000; 2931,000;169,80769
1894,55; 3757,000; 2022,000; 3034,000;171,44269
1897,98; 4024,000; 2272,000; 3275,000;174,67597
1901,40; 3731,000; 2030,000; 3031,000;169,93007

