C_ASA_FCR_1
Integration time [ms]: 100,000
Averaging Nr. [scans]: 1
Smoothing Nr. [pixels]: 0
Data measured with spectrometer [name]: 1204091U1
Wave   ;Sample   ;Dark     ;Reference;Reflectance
[nm]   ;[counts] ;[counts] ;[counts] ;[%]

1014,48; 7584,000; 2159,000; 6686,000;119,83654
1019,01; 8051,000; 2263,000; 7134,000;118,82570
1023,54; 8487,000; 2460,000; 7582,000;117,66888
1028,07; 8674,000; 2357,000; 7740,000;117,35092
1032,59; 8891,000; 2222,000; 7947,000;116,48908
1037,10; 9356,000; 2251,000; 8409,000;115,37837
1041,62; 9735,000; 2335,000; 8775,000;114,90683
1046,12;10527,000; 2824,000; 9555,000;114,44065
1050,62;10229,000; 2300,000; 9240,000;114,25072
1055,12;10371,000; 2181,000; 9387,000;113,65529
1059,62;10370,000; 2009,000; 9358,000;113,77058
1064,10;11055,000; 2401,000;10031,000;113,42071
1068,59;11467,000; 2570,000;10411,000;113,46767
1073,07;11598,000; 2356,000;10516,000;113,25980
1077,54;11703,000; 2278,000;10631,000;112,83371
1082,01;12131,000; 2486,000;11025,000;112,95234
1086,48;12425,000; 2488,000;11325,000;112,44766
1090,94;12113,000; 2081,000;10975,000;112,79514
1095,39;13401,000; 3026,000;12290,000;111,99266
1099,85;12997,000; 2345,000;11921,000;111,23642
1104,29;13287,000; 2403,000;12226,000;110,80118
1108,73;13098,000; 2060,000;12064,000;110,33587
1113,17;13840,000; 2768,000;12897,000;109,30990
1117,61;13508,000; 2351,000;12709,000;107,71384
1122,03;13854,000; 2714,000;13178,000;106,46024
1126,46;13313,000; 2237,000;12873,000;104,13689
1130,88;13111,000; 2154,000;12946,000;101,52891
1135,29;13560,000; 2780,000;13624,000;99,40981
1139,70;12906,000; 2109,000;13204,000;97,31411
1144,11;13035,000; 2181,000;13375,000;96,96266
1148,51;13330,000; 2244,000;13522,000;98,29757
1152,90;13683,000; 2301,000;13707,000;99,78958
1157,29;13670,000; 2006,000;13470,000;101,74459
1161,68;14137,000; 2262,000;13824,000;102,70714
1166,06;14131,000; 2248,000;13803,000;102,83860
1170,44;14215,000; 2494,000;13961,000;102,21505
1174,81;13559,000; 2196,000;13387,000;101,53695
1179,18;13583,000; 2339,000;13505,000;100,69855
1183,54;13556,000; 2531,000;13570,000;99,87318
1187,90;13433,000; 2580,000;13523,000;99,17756
1192,25;13069,000; 2379,000;13172,000;99,04568
1196,60;12807,000; 2222,000;12903,000;99,10121
1200,94;12969,000; 2485,000;12994,000;99,76211
1205,28;12648,000; 2285,000;12529,000;101,16166
1209,62;12842,000; 2418,000;12639,000;101,98611
1213,95;12972,000; 2543,000;12596,000;103,74018
1218,27;12571,000; 2113,000;12057,000;105,16895
1222,59;12954,000; 2762,000;12319,000;106,64434
1226,91;12768,000; 2482,000;12036,000;107,66171
1231,22;12449,000; 2269,000;11621,000;108,85372
1235,52;12024,000; 1935,000;11126,000;109,77043
1239,82;12355,000; 2360,000;11354,000;111,12964
1244,12;11945,000; 2191,000;10953,000;111,32162
1248,41;12210,000; 2519,000;11152,000;112,25530
1252,70;11338,000; 1808,000;10246,000;112,94146
1256,98;11584,000; 2069,000;10481,000;113,11222
1261,26;12019,000; 2578,000;10887,000;113,62378
1265,53;11190,000; 1911,000;10040,000;114,14688
1269,80;11405,000; 2085,000;10196,000;114,90568
1274,06;11627,000; 2472,000;10429,000;115,05593
1278,32;11324,000; 2246,000;10116,000;115,34943
1282,57;11321,000; 2315,000;10115,000;115,46154
1286,82;11109,000; 2159,000; 9878,000;115,94766
1291,06;11260,000; 2434,000; 9974,000;117,05570
1295,30;11147,000; 2354,000; 9886,000;116,74190
1299,53;11318,000; 2461,000;10030,000;117,01678
1303,76;11102,000; 2315,000; 9771,000;117,85139
1307,99;11374,000; 2633,000;10041,000;117,99406
1312,20;11204,000; 2539,000; 9875,000;118,11614
1316,42;10607,000; 2175,000; 9339,000;117,69961
1320,63;10591,000; 2246,000; 9303,000;118,25138
1324,83;10097,000; 1875,000; 8811,000;118,54095
1329,03;10405,000; 2294,000; 9122,000;118,79028
1333,23;10088,000; 2137,000; 8853,000;118,38892
1337,42;10299,000; 2453,000; 9095,000;118,12707
1341,60; 9733,000; 2063,000; 8573,000;117,81874
1345,78; 9922,000; 2407,000; 8779,000;117,93785
1349,96; 9378,000; 1977,000; 8295,000;117,14150
1354,13; 9478,000; 2218,000; 8428,000;116,90821
1358,29; 9207,000; 2040,000; 8181,000;116,70738
1362,46; 9342,000; 2455,000; 8370,000;116,43280
1366,61; 9127,000; 2409,000; 8197,000;116,06773
1370,76; 8629,000; 2106,000; 7751,000;115,55359
1374,91; 8907,000; 2653,000; 8072,000;115,40875
1379,05; 8025,000; 2056,000; 7236,000;115,23166
1383,18; 8835,000; 2983,000; 8057,000;115,33307
1387,32; 7905,000; 2042,000; 7174,000;114,24396
1391,44; 7872,000; 2029,000; 7155,000;113,98751
1395,56; 8681,000; 2838,000; 7994,000;113,32428
1399,68; 7782,000; 1864,000; 7116,000;112,68088
1403,79; 8017,000; 2045,000; 7382,000;111,89807
1407,90; 7902,000; 1975,000; 7279,000;111,74585
1412,00; 8066,000; 2064,000; 7433,000;111,78991
1416,10; 8474,000; 2407,000; 7775,000;113,02161
1420,19; 8129,000; 2106,000; 7422,000;113,29947
1424,27; 8288,000; 2292,000; 7597,000;113,02545
1428,36; 8353,000; 2373,000; 7627,000;113,81804
1432,43; 8487,000; 2538,000; 7760,000;113,92187
1436,50; 8129,000; 2221,000; 7397,000;114,14219
1440,57; 8338,000; 2379,000; 7559,000;115,03861
1444,63; 7960,000; 2054,000; 7190,000;114,99221
1448,69; 7710,000; 1832,000; 6909,000;115,77703
1452,74; 8015,000; 2149,000; 7178,000;116,64347
1456,79; 7770,000; 1924,000; 6934,000;116,68663
1460,83; 7877,000; 2085,000; 7017,000;117,43715
1464,87; 8118,000; 2389,000; 7273,000;117,30139
1468,90; 8097,000; 2366,000; 7250,000;117,34234
1472,93; 7925,000; 2274,000; 7073,000;117,75370
1476,95; 7965,000; 2304,000; 7073,000;118,70413
1480,96; 7630,000; 2026,000; 6740,000;118,87993
1484,98; 7845,000; 2214,000; 6916,000;119,75755
1488,98; 7848,000; 2321,000; 6981,000;118,60515
1492,98; 7858,000; 2415,000; 6974,000;119,39022
1496,98; 7492,000; 2066,000; 6594,000;119,83216
1500,97; 7815,000; 2503,000; 6934,000;119,88265
1504,96; 7184,000; 1869,000; 6310,000;119,68025
1508,94; 7736,000; 2442,000; 6874,000;119,44946
1512,92; 7333,000; 2047,000; 6459,000;119,80961
1516,89; 7444,000; 2181,000; 6559,000;120,21471
1520,85; 7301,000; 2039,000; 6397,000;120,74346
1524,81; 7834,000; 2622,000; 6923,000;121,18112
1528,77; 7216,000; 1993,000; 6335,000;120,29019
1532,72; 7280,000; 2083,000; 6385,000;120,80428
1536,67; 7700,000; 2574,000; 6827,000;120,52669
1540,61; 7058,000; 2053,000; 6158,000;121,92448
1544,54; 7473,000; 2397,000; 6559,000;121,96060
1548,47; 6844,000; 1870,000; 5963,000;121,52455
1552,40; 7226,000; 2311,000; 6340,000;121,99057
1556,32; 7172,000; 2289,000; 6299,000;121,77057
1560,23; 6939,000; 2216,000; 6063,000;122,77099
1564,15; 6992,000; 2266,000; 6123,000;122,53046
1568,05; 6800,000; 2111,000; 5937,000;122,55619
1571,95; 7039,000; 2431,000; 6174,000;123,10980
1575,84; 6610,000; 2066,000; 5767,000;122,77763
1579,73; 6799,000; 2334,000; 5973,000;122,69854
1583,62; 6674,000; 2251,000; 5853,000;122,79289
1587,50; 6356,000; 1973,000; 5552,000;122,46438
1591,37; 6833,000; 2501,000; 6051,000;122,02817
1595,24; 6451,000; 2195,000; 5695,000;121,60000
1599,11; 6157,000; 1935,000; 5426,000;120,93956
1602,96; 6179,000; 2027,000; 5422,000;122,29750
1606,82; 6010,000; 1926,000; 5276,000;121,91045
1610,67; 6200,000; 2202,000; 5507,000;120,96823
1614,51; 6263,000; 2375,000; 5635,000;119,26380
1618,35; 5778,000; 1955,000; 5143,000;119,91844
1622,18; 5861,000; 2163,000; 5307,000;117,62087
1626,01; 5813,000; 2191,000; 5286,000;117,02746
1629,83; 5750,000; 2237,000; 5309,000;114,35547
1633,65; 5815,000; 2363,000; 5411,000;113,25459
1637,46; 5475,000; 2065,000; 5041,000;114,58333
1641,27; 5362,000; 2043,000; 4995,000;112,43225
1645,07; 5272,000; 2025,000; 4923,000;112,04279
1648,86; 5177,000; 2022,000; 4872,000;110,70175
1652,66; 5107,000; 2009,000; 4849,000;109,08451
1656,44; 5083,000; 2080,000; 4866,000;107,78894
1660,22; 5133,000; 2279,000; 5011,000;104,46559
1664,00; 5188,000; 2386,000; 5119,000;102,52470
1667,77; 4818,000; 2147,000; 4820,000;99,92518
1671,53; 4681,000; 2096,000; 4676,000;100,19380
1675,29; 4569,000; 1956,000; 4597,000;98,93980
1679,05; 4818,000; 2235,000; 4841,000;99,11742
1682,80; 4682,000; 2121,000; 4673,000;100,35266
1686,54; 4917,000; 2345,000; 4882,000;101,37958
1690,28; 4902,000; 2330,000; 4848,000;102,14456
1694,01; 4478,000; 1942,000; 4390,000;103,59477
1697,74; 4615,000; 2079,000; 4510,000;104,31921
1701,46; 4803,000; 2282,000; 4676,000;105,30493
1705,18; 4518,000; 2006,000; 4351,000;107,12154
1708,89; 4425,000; 1911,000; 4242,000;107,85071
1712,60; 4755,000; 2253,000; 4569,000;108,03109
1716,30; 4745,000; 2295,000; 4547,000;108,79218
1720,00; 4777,000; 2337,000; 4572,000;109,17226
1723,69; 4695,000; 2261,000; 4469,000;110,23551
1727,38; 4312,000; 1905,000; 4079,000;110,71757
1731,06; 4593,000; 2204,000; 4366,000;110,49954
1734,73; 4506,000; 2153,000; 4269,000;111,20038
1738,40; 4352,000; 1998,000; 4086,000;112,73946
1742,07; 4723,000; 2398,000; 4492,000;111,03152
1745,73; 4352,000; 2036,000; 4113,000;111,50698
1749,38; 4598,000; 2316,000; 4333,000;113,13832
1753,03; 4591,000; 2360,000; 4336,000;112,90486
1756,67; 4398,000; 2169,000; 4109,000;114,89691
1760,31; 4527,000; 2287,000; 4202,000;116,97128
1763,94; 4428,000; 2226,000; 4114,000;116,63136
1767,57; 4387,000; 2202,000; 4056,000;117,85329
1771,19; 4279,000; 2090,000; 3874,000;122,70179
1774,81; 4435,000; 2248,000; 4032,000;122,58969
1778,42; 4385,000; 2269,000; 4027,000;120,36405
1782,03; 4214,000; 2095,000; 3823,000;122,62731
1785,63; 4123,000; 2035,000; 3722,000;123,77001
1789,22; 4149,000; 2111,000; 3791,000;121,30952
1792,81; 3959,000; 1992,000; 3582,000;123,71069
1796,40; 3868,000; 1886,000; 3487,000;123,79763
1799,98; 4427,000; 2449,000; 4025,000;125,50761
1803,55; 4127,000; 2183,000; 3731,000;125,58140
1807,12; 4002,000; 2061,000; 3579,000;127,86561
1810,68; 4607,000; 2694,000; 4197,000;127,27878
1814,24; 3850,000; 1955,000; 3431,000;128,38753
1817,79; 4331,000; 2464,000; 3918,000;128,40440
1821,34; 4457,000; 2605,000; 4045,000;128,61111
1824,88; 3853,000; 2018,000; 3427,000;130,23421
1828,41; 4109,000; 2289,000; 3672,000;131,59798
1831,94; 3923,000; 2125,000; 3487,000;132,01175
1835,47; 3705,000; 1906,000; 3243,000;134,55497
1838,99; 4062,000; 2296,000; 3612,000;134,19453
1842,50; 3892,000; 2133,000; 3433,000;135,30769
1846,01; 3738,000; 2020,000; 3270,000;137,44000
1849,51; 3563,000; 1814,000; 3091,000;136,96163
1853,01; 3644,000; 1929,000; 3201,000;134,82704
1856,50; 4481,000; 2700,000; 3984,000;138,70717
1859,99; 3554,000; 1862,000; 3058,000;141,47157
1863,47; 3883,000; 2216,000; 3413,000;139,26483
1866,94; 3695,000; 2005,000; 3183,000;143,46350
1870,41; 4022,000; 2432,000; 3602,000;135,89744
1873,88; 3848,000; 2210,000; 3354,000;143,18182
1877,34; 4113,000; 2493,000; 3625,000;143,10954
1880,79; 3975,000; 2396,000; 3490,000;144,33272
1884,24; 3937,000; 2396,000; 3479,000;142,28994
1887,68; 3511,000; 2020,000; 3039,000;146,31992
1891,12; 3370,000; 1891,000; 2931,000;142,21154
1894,55; 3494,000; 2022,000; 3034,000;145,45455
1897,98; 3753,000; 2272,000; 3275,000;147,65703
1901,40; 3492,000; 2030,000; 3031,000;146,05395

