C_PACF_FCR_1
Integration time [ms]: 100,000
Averaging Nr. [scans]: 1
Smoothing Nr. [pixels]: 0
Data measured with spectrometer [name]: 1204091U1
Wave   ;Sample   ;Dark     ;Reference;Reflectance
[nm]   ;[counts] ;[counts] ;[counts] ;[%]

1014,48; 4046,000; 2159,000; 6686,000;41,68323
1019,01; 4262,000; 2263,000; 7134,000;41,03880
1023,54; 4553,000; 2460,000; 7582,000;40,86294
1028,07; 4544,000; 2357,000; 7740,000;40,62790
1032,59; 4535,000; 2222,000; 7947,000;40,40175
1037,10; 4699,000; 2251,000; 8409,000;39,75317
1041,62; 4877,000; 2335,000; 8775,000;39,47205
1046,12; 5468,000; 2824,000; 9555,000;39,28094
1050,62; 5022,000; 2300,000; 9240,000;39,22190
1055,12; 4983,000; 2181,000; 9387,000;38,88426
1059,62; 4833,000; 2009,000; 9358,000;38,42700
1064,10; 5316,000; 2401,000;10031,000;38,20446
1068,59; 5560,000; 2570,000;10411,000;38,13289
1073,07; 5429,000; 2356,000;10516,000;37,65931
1077,54; 5413,000; 2278,000;10631,000;37,53143
1082,01; 5696,000; 2486,000;11025,000;37,59222
1086,48; 5796,000; 2488,000;11325,000;37,43352
1090,94; 5388,000; 2081,000;10975,000;37,18237
1095,39; 6508,000; 3026,000;12290,000;37,58636
1099,85; 5884,000; 2345,000;11921,000;36,95698
1104,29; 6054,000; 2403,000;12226,000;37,16787
1108,73; 5748,000; 2060,000;12064,000;36,86525
1113,17; 6530,000; 2768,000;12897,000;37,14088
1117,61; 6208,000; 2351,000;12709,000;37,23692
1122,03; 6604,000; 2714,000;13178,000;37,17508
1126,46; 6201,000; 2237,000;12873,000;37,26965
1130,88; 6166,000; 2154,000;12946,000;37,17569
1135,29; 6841,000; 2780,000;13624,000;37,44928
1139,70; 6246,000; 2109,000;13204,000;37,28707
1144,11; 6356,000; 2181,000;13375,000;37,29677
1148,51; 6442,000; 2244,000;13522,000;37,22291
1152,90; 6529,000; 2301,000;13707,000;37,06821
1157,29; 6254,000; 2006,000;13470,000;37,05513
1161,68; 6541,000; 2262,000;13824,000;37,00917
1166,06; 6532,000; 2248,000;13803,000;37,07486
1170,44; 6727,000; 2494,000;13961,000;36,91462
1174,81; 6350,000; 2196,000;13387,000;37,11911
1179,18; 6499,000; 2339,000;13505,000;37,25596
1183,54; 6630,000; 2531,000;13570,000;37,13199
1187,90; 6670,000; 2580,000;13523,000;37,37549
1192,25; 6435,000; 2379,000;13172,000;37,57991
1196,60; 6251,000; 2222,000;12903,000;37,72119
1200,94; 6465,000; 2485,000;12994,000;37,87230
1205,28; 6187,000; 2285,000;12529,000;38,09059
1209,62; 6301,000; 2418,000;12639,000;37,99041
1213,95; 6401,000; 2543,000;12596,000;38,37660
1218,27; 5931,000; 2113,000;12057,000;38,39501
1222,59; 6468,000; 2762,000;12319,000;38,77786
1226,91; 6205,000; 2482,000;12036,000;38,96797
1231,22; 5930,000; 2269,000;11621,000;39,14671
1235,52; 5548,000; 1935,000;11126,000;39,31019
1239,82; 5913,000; 2360,000;11354,000;39,50411
1244,12; 5656,000; 2191,000;10953,000;39,54577
1248,41; 5936,000; 2519,000;11152,000;39,58068
1252,70; 5141,000; 1808,000;10246,000;39,49988
1256,98; 5396,000; 2069,000;10481,000;39,55064
1261,26; 5874,000; 2578,000;10887,000;39,66783
1265,53; 5162,000; 1911,000;10040,000;39,99262
1269,80; 5316,000; 2085,000;10196,000;39,83479
1274,06; 5636,000; 2472,000;10429,000;39,76373
1278,32; 5386,000; 2246,000;10116,000;39,89835
1282,57; 5427,000; 2315,000;10115,000;39,89744
1286,82; 5259,000; 2159,000; 9878,000;40,16064
1291,06; 5518,000; 2434,000; 9974,000;40,90186
1295,30; 5428,000; 2354,000; 9886,000;40,81253
1299,53; 5571,000; 2461,000;10030,000;41,08865
1303,76; 5393,000; 2315,000; 9771,000;41,28219
1307,99; 5691,000; 2633,000;10041,000;41,27970
1312,20; 5603,000; 2539,000; 9875,000;41,76663
1316,42; 5190,000; 2175,000; 9339,000;42,08543
1320,63; 5215,000; 2246,000; 9303,000;42,07170
1324,83; 4838,000; 1875,000; 8811,000;42,71915
1329,03; 5283,000; 2294,000; 9122,000;43,77563
1333,23; 5063,000; 2137,000; 8853,000;43,56760
1337,42; 5353,000; 2453,000; 9095,000;43,66155
1341,60; 4895,000; 2063,000; 8573,000;43,50230
1345,78; 5183,000; 2407,000; 8779,000;43,56560
1349,96; 4727,000; 1977,000; 8295,000;43,52643
1354,13; 4905,000; 2218,000; 8428,000;43,26892
1358,29; 4680,000; 2040,000; 8181,000;42,98974
1362,46; 5003,000; 2455,000; 8370,000;43,07692
1366,61; 4917,000; 2409,000; 8197,000;43,33103
1370,76; 4559,000; 2106,000; 7751,000;43,45438
1374,91; 5052,000; 2653,000; 8072,000;44,27016
1379,05; 4360,000; 2056,000; 7236,000;44,47876
1383,18; 5259,000; 2983,000; 8057,000;44,85613
1387,32; 4348,000; 2042,000; 7174,000;44,93375
1391,44; 4343,000; 2029,000; 7155,000;45,14241
1395,56; 5188,000; 2838,000; 7994,000;45,57797
1399,68; 4228,000; 1864,000; 7116,000;45,01142
1403,79; 4455,000; 2045,000; 7382,000;45,15645
1407,90; 4360,000; 1975,000; 7279,000;44,96606
1412,00; 4455,000; 2064,000; 7433,000;44,53343
1416,10; 4866,000; 2407,000; 7775,000;45,80849
1420,19; 4502,000; 2106,000; 7422,000;45,07148
1424,27; 4691,000; 2292,000; 7597,000;45,22149
1428,36; 4760,000; 2373,000; 7627,000;45,43205
1432,43; 4915,000; 2538,000; 7760,000;45,51896
1436,50; 4551,000; 2221,000; 7397,000;45,01546
1440,57; 4729,000; 2379,000; 7559,000;45,36680
1444,63; 4361,000; 2054,000; 7190,000;44,91822
1448,69; 4128,000; 1832,000; 6909,000;45,22356
1452,74; 4427,000; 2149,000; 7178,000;45,29728
1456,79; 4195,000; 1924,000; 6934,000;45,32934
1460,83; 4324,000; 2085,000; 7017,000;45,39740
1464,87; 4608,000; 2389,000; 7273,000;45,43407
1468,90; 4570,000; 2366,000; 7250,000;45,12695
1472,93; 4499,000; 2274,000; 7073,000;46,36383
1476,95; 4507,000; 2304,000; 7073,000;46,19417
1480,96; 4220,000; 2026,000; 6740,000;46,54221
1484,98; 4400,000; 2214,000; 6916,000;46,49085
1488,98; 4515,000; 2321,000; 6981,000;47,08155
1492,98; 4579,000; 2415,000; 6974,000;47,46655
1496,98; 4235,000; 2066,000; 6594,000;47,90194
1500,97; 4660,000; 2503,000; 6934,000;48,67976
1504,96; 4018,000; 1869,000; 6310,000;48,39000
1508,94; 4597,000; 2442,000; 6874,000;48,62365
1512,92; 4179,000; 2047,000; 6459,000;48,32276
1516,89; 4293,000; 2181,000; 6559,000;48,24121
1520,85; 4130,000; 2039,000; 6397,000;47,98073
1524,81; 4695,000; 2622,000; 6923,000;48,19809
1528,77; 4066,000; 1993,000; 6335,000;47,74298
1532,72; 4129,000; 2083,000; 6385,000;47,55927
1536,67; 4588,000; 2574,000; 6827,000;47,35481
1540,61; 4037,000; 2053,000; 6158,000;48,33130
1544,54; 4409,000; 2397,000; 6559,000;48,34214
1548,47; 3839,000; 1870,000; 5963,000;48,10652
1552,40; 4284,000; 2311,000; 6340,000;48,96997
1556,32; 4242,000; 2289,000; 6299,000;48,70324
1560,23; 4136,000; 2216,000; 6063,000;49,90902
1564,15; 4192,000; 2266,000; 6123,000;49,93518
1568,05; 4029,000; 2111,000; 5937,000;50,13068
1571,95; 4324,000; 2431,000; 6174,000;50,57441
1575,84; 3939,000; 2066,000; 5767,000;50,60794
1579,73; 4184,000; 2334,000; 5973,000;50,83814
1583,62; 4108,000; 2251,000; 5853,000;51,55469
1587,50; 3796,000; 1973,000; 5552,000;50,93602
1591,37; 4346,000; 2501,000; 6051,000;51,97183
1595,24; 4025,000; 2195,000; 5695,000;52,28571
1599,11; 3756,000; 1935,000; 5426,000;52,16270
1602,96; 3820,000; 2027,000; 5422,000;52,81296
1606,82; 3684,000; 1926,000; 5276,000;52,47761
1610,67; 3947,000; 2202,000; 5507,000;52,79879
1614,51; 4076,000; 2375,000; 5635,000;52,17791
1618,35; 3640,000; 1955,000; 5143,000;52,85445
1622,18; 3856,000; 2163,000; 5307,000;53,84860
1626,01; 3816,000; 2191,000; 5286,000;52,50404
1629,83; 3843,000; 2237,000; 5309,000;52,27865
1633,65; 3952,000; 2363,000; 5411,000;52,13255
1637,46; 3682,000; 2065,000; 5041,000;54,33468
1641,27; 3600,000; 2043,000; 4995,000;52,74390
1645,07; 3588,000; 2025,000; 4923,000;53,93375
1648,86; 3575,000; 2022,000; 4872,000;54,49123
1652,66; 3548,000; 2009,000; 4849,000;54,19014
1656,44; 3627,000; 2080,000; 4866,000;55,52764
1660,22; 3808,000; 2279,000; 5011,000;55,96633
1664,00; 3950,000; 2386,000; 5119,000;57,22649
1667,77; 3663,000; 2147,000; 4820,000;56,71530
1671,53; 3584,000; 2096,000; 4676,000;57,67442
1675,29; 3477,000; 1956,000; 4597,000;57,59182
1679,05; 3730,000; 2235,000; 4841,000;57,36761
1682,80; 3599,000; 2121,000; 4673,000;57,91536
1686,54; 3829,000; 2345,000; 4882,000;58,49428
1690,28; 3782,000; 2330,000; 4848,000;57,66481
1694,01; 3336,000; 1942,000; 4390,000;56,94444
1697,74; 3471,000; 2079,000; 4510,000;57,26039
1701,46; 3667,000; 2282,000; 4676,000;57,85297
1705,18; 3356,000; 2006,000; 4351,000;57,56930
1708,89; 3251,000; 1911,000; 4242,000;57,48606
1712,60; 3608,000; 2253,000; 4569,000;58,50604
1716,30; 3611,000; 2295,000; 4547,000;58,43694
1720,00; 3661,000; 2337,000; 4572,000;59,23937
1723,69; 3596,000; 2261,000; 4469,000;60,46196
1727,38; 3191,000; 1905,000; 4079,000;59,15363
1731,06; 3490,000; 2204,000; 4366,000;59,48196
1734,73; 3459,000; 2153,000; 4269,000;61,72023
1738,40; 3296,000; 1998,000; 4086,000;62,16475
1742,07; 3704,000; 2398,000; 4492,000;62,36867
1745,73; 3341,000; 2036,000; 4113,000;62,83101
1749,38; 3611,000; 2316,000; 4333,000;64,20426
1753,03; 3651,000; 2360,000; 4336,000;65,33401
1756,67; 3432,000; 2169,000; 4109,000;65,10309
1760,31; 3554,000; 2287,000; 4202,000;66,16188
1763,94; 3484,000; 2226,000; 4114,000;66,63136
1767,57; 3427,000; 2202,000; 4056,000;66,07335
1771,19; 3275,000; 2090,000; 3874,000;66,42377
1774,81; 3424,000; 2248,000; 4032,000;65,91928
1778,42; 3433,000; 2269,000; 4027,000;66,21160
1782,03; 3238,000; 2095,000; 3823,000;66,14583
1785,63; 3151,000; 2035,000; 3722,000;66,15293
1789,22; 3207,000; 2111,000; 3791,000;65,23810
1792,81; 3052,000; 1992,000; 3582,000;66,66667
1796,40; 2960,000; 1886,000; 3487,000;67,08307
1799,98; 3521,000; 2449,000; 4025,000;68,02030
1803,55; 3247,000; 2183,000; 3731,000;68,73385
1807,12; 3119,000; 2061,000; 3579,000;69,69697
1810,68; 3784,000; 2694,000; 4197,000;72,52162
1814,24; 3024,000; 1955,000; 3431,000;72,42547
1817,79; 3544,000; 2464,000; 3918,000;74,27785
1821,34; 3685,000; 2605,000; 4045,000;75,00000
1824,88; 3085,000; 2018,000; 3427,000;75,72747
1828,41; 3360,000; 2289,000; 3672,000;77,44035
1831,94; 3180,000; 2125,000; 3487,000;77,45962
1835,47; 2942,000; 1906,000; 3243,000;77,48691
1838,99; 3322,000; 2296,000; 3612,000;77,96353
1842,50; 3124,000; 2133,000; 3433,000;76,23077
1846,01; 2992,000; 2020,000; 3270,000;77,76000
1849,51; 2802,000; 1814,000; 3091,000;77,36883
1853,01; 2915,000; 1929,000; 3201,000;77,51572
1856,50; 3697,000; 2700,000; 3984,000;77,64798
1859,99; 2798,000; 1862,000; 3058,000;78,26087
1863,47; 3156,000; 2216,000; 3413,000;78,52966
1866,94; 2909,000; 2005,000; 3183,000;76,74024
1870,41; 3349,000; 2432,000; 3602,000;78,37607
1873,88; 3136,000; 2210,000; 3354,000;80,94406
1877,34; 3425,000; 2493,000; 3625,000;82,33216
1880,79; 3292,000; 2396,000; 3490,000;81,90128
1884,24; 3276,000; 2396,000; 3479,000;81,25577
1887,68; 2890,000; 2020,000; 3039,000;85,37782
1891,12; 2772,000; 1891,000; 2931,000;84,71154
1894,55; 2896,000; 2022,000; 3034,000;86,36364
1897,98; 3174,000; 2272,000; 3275,000;89,93021
1901,40; 2942,000; 2030,000; 3031,000;91,10889

