C_PLA_FCR_1
Integration time [ms]: 100,000
Averaging Nr. [scans]: 1
Smoothing Nr. [pixels]: 0
Data measured with spectrometer [name]: 1204091U1
Wave   ;Sample   ;Dark     ;Reference;Reflectance
[nm]   ;[counts] ;[counts] ;[counts] ;[%]

1014,48; 5667,000; 2159,000; 6686,000;77,49061
1019,01; 5999,000; 2263,000; 7134,000;76,69883
1023,54; 6401,000; 2460,000; 7582,000;76,94260
1028,07; 6452,000; 2357,000; 7740,000;76,07282
1032,59; 6568,000; 2222,000; 7947,000;75,91266
1037,10; 6877,000; 2251,000; 8409,000;75,12179
1041,62; 7139,000; 2335,000; 8775,000;74,59627
1046,12; 7824,000; 2824,000; 9555,000;74,28317
1050,62; 7444,000; 2300,000; 9240,000;74,12104
1055,12; 7482,000; 2181,000; 9387,000;73,56370
1059,62; 7408,000; 2009,000; 9358,000;73,46578
1064,10; 7967,000; 2401,000;10031,000;72,94889
1068,59; 8280,000; 2570,000;10411,000;72,82234
1073,07; 8314,000; 2356,000;10516,000;73,01471
1077,54; 8349,000; 2278,000;10631,000;72,68047
1082,01; 8656,000; 2486,000;11025,000;72,25670
1086,48; 8895,000; 2488,000;11325,000;72,50198
1090,94; 8538,000; 2081,000;10975,000;72,59951
1095,39; 9745,000; 3026,000;12290,000;72,52807
1099,85; 9242,000; 2345,000;11921,000;72,02381
1104,29; 9436,000; 2403,000;12226,000;71,59727
1108,73; 9209,000; 2060,000;12064,000;71,46142
1113,17; 9999,000; 2768,000;12897,000;71,38908
1117,61; 9708,000; 2351,000;12709,000;71,02723
1122,03;10115,000; 2714,000;13178,000;70,72821
1126,46; 9728,000; 2237,000;12873,000;70,43061
1130,88; 9664,000; 2154,000;12946,000;69,58858
1135,29;10279,000; 2780,000;13624,000;69,15345
1139,70; 9720,000; 2109,000;13204,000;68,59847
1144,11; 9835,000; 2181,000;13375,000;68,37592
1148,51; 9874,000; 2244,000;13522,000;67,65384
1152,90; 9898,000; 2301,000;13707,000;66,60530
1157,29; 9531,000; 2006,000;13470,000;65,64027
1161,68; 9756,000; 2262,000;13824,000;64,81578
1166,06; 9701,000; 2248,000;13803,000;64,50022
1170,44; 9849,000; 2494,000;13961,000;64,14058
1174,81; 9401,000; 2196,000;13387,000;64,38209
1179,18; 9647,000; 2339,000;13505,000;65,44868
1183,54; 9918,000; 2531,000;13570,000;66,91729
1187,90;10064,000; 2580,000;13523,000;68,39075
1192,25; 9866,000; 2379,000;13172,000;69,36904
1196,60; 9702,000; 2222,000;12903,000;70,03090
1200,94; 9893,000; 2485,000;12994,000;70,49196
1205,28; 9615,000; 2285,000;12529,000;71,55408
1209,62; 9778,000; 2418,000;12639,000;72,00861
1213,95; 9847,000; 2543,000;12596,000;72,65493
1218,27; 9397,000; 2113,000;12057,000;73,25020
1222,59; 9812,000; 2762,000;12319,000;73,76792
1226,91; 9551,000; 2482,000;12036,000;73,98995
1231,22; 9219,000; 2269,000;11621,000;74,31565
1235,52; 8811,000; 1935,000;11126,000;74,81232
1239,82; 9116,000; 2360,000;11354,000;75,11674
1244,12; 8802,000; 2191,000;10953,000;75,45081
1248,41; 9053,000; 2519,000;11152,000;75,68632
1252,70; 8239,000; 1808,000;10246,000;76,21474
1256,98; 8477,000; 2069,000;10481,000;76,17689
1261,26; 8944,000; 2578,000;10887,000;76,61572
1265,53; 8205,000; 1911,000;10040,000;77,42650
1269,80; 8346,000; 2085,000;10196,000;77,19147
1274,06; 8625,000; 2472,000;10429,000;77,32814
1278,32; 8360,000; 2246,000;10116,000;77,68742
1282,57; 8402,000; 2315,000;10115,000;78,03846
1286,82; 8202,000; 2159,000; 9878,000;78,28734
1291,06; 8395,000; 2434,000; 9974,000;79,05836
1295,30; 8310,000; 2354,000; 9886,000;79,07594
1299,53; 8498,000; 2461,000;10030,000;79,75955
1303,76; 8303,000; 2315,000; 9771,000;80,31116
1307,99; 8569,000; 2633,000;10041,000;80,12959
1312,20; 8465,000; 2539,000; 9875,000;80,77972
1316,42; 7969,000; 2175,000; 9339,000;80,87661
1320,63; 7955,000; 2246,000; 9303,000;80,89840
1324,83; 7505,000; 1875,000; 8811,000;81,17070
1329,03; 7844,000; 2294,000; 9122,000;81,28295
1333,23; 7540,000; 2137,000; 8853,000;80,44967
1337,42; 7738,000; 2453,000; 9095,000;79,56941
1341,60; 7177,000; 2063,000; 8573,000;78,55607
1345,78; 7372,000; 2407,000; 8779,000;77,91902
1349,96; 6844,000; 1977,000; 8295,000;77,03387
1354,13; 7018,000; 2218,000; 8428,000;77,29469
1358,29; 6781,000; 2040,000; 8181,000;77,20241
1362,46; 7020,000; 2455,000; 8370,000;77,17667
1366,61; 6862,000; 2409,000; 8197,000;76,93504
1370,76; 6510,000; 2106,000; 7751,000;78,01594
1374,91; 6899,000; 2653,000; 8072,000;78,35394
1379,05; 6156,000; 2056,000; 7236,000;79,15058
1383,18; 7000,000; 2983,000; 8057,000;79,16831
1387,32; 6091,000; 2042,000; 7174,000;78,89712
1391,44; 6119,000; 2029,000; 7155,000;79,78931
1395,56; 6943,000; 2838,000; 7994,000;79,61598
1399,68; 6044,000; 1864,000; 7116,000;79,58873
1403,79; 6252,000; 2045,000; 7382,000;78,82706
1407,90; 6177,000; 1975,000; 7279,000;79,22323
1412,00; 6317,000; 2064,000; 7433,000;79,21401
1416,10; 6691,000; 2407,000; 7775,000;79,80626
1420,19; 6378,000; 2106,000; 7422,000;80,36117
1424,27; 6576,000; 2292,000; 7597,000;80,75401
1428,36; 6628,000; 2373,000; 7627,000;80,98592
1432,43; 6762,000; 2538,000; 7760,000;80,88855
1436,50; 6411,000; 2221,000; 7397,000;80,95054
1440,57; 6553,000; 2379,000; 7559,000;80,57915
1444,63; 6172,000; 2054,000; 7190,000;80,17913
1448,69; 5946,000; 1832,000; 6909,000;81,03211
1452,74; 6259,000; 2149,000; 7178,000;81,72599
1456,79; 6007,000; 1924,000; 6934,000;81,49701
1460,83; 6136,000; 2085,000; 7017,000;82,13706
1464,87; 6404,000; 2389,000; 7273,000;82,20721
1468,90; 6397,000; 2366,000; 7250,000;82,53481
1472,93; 6285,000; 2274,000; 7073,000;83,57991
1476,95; 6327,000; 2304,000; 7073,000;84,35731
1480,96; 6008,000; 2026,000; 6740,000;84,47179
1484,98; 6200,000; 2214,000; 6916,000;84,77244
1488,98; 6280,000; 2321,000; 6981,000;84,95708
1492,98; 6332,000; 2415,000; 6974,000;85,91796
1496,98; 5961,000; 2066,000; 6594,000;86,02032
1500,97; 6322,000; 2503,000; 6934,000;86,18822
1504,96; 5716,000; 1869,000; 6310,000;86,62463
1508,94; 6284,000; 2442,000; 6874,000;86,68773
1512,92; 5874,000; 2047,000; 6459,000;86,74071
1516,89; 5972,000; 2181,000; 6559,000;86,59205
1520,85; 5791,000; 2039,000; 6397,000;86,09454
1524,81; 6344,000; 2622,000; 6923,000;86,53801
1528,77; 5738,000; 1993,000; 6335,000;86,25058
1532,72; 5797,000; 2083,000; 6385,000;86,33194
1536,67; 6242,000; 2574,000; 6827,000;86,24500
1540,61; 5633,000; 2053,000; 6158,000;87,21072
1544,54; 5988,000; 2397,000; 6559,000;86,28063
1548,47; 5425,000; 1870,000; 5963,000;86,85561
1552,40; 5852,000; 2311,000; 6340,000;87,88781
1556,32; 5821,000; 2289,000; 6299,000;88,07980
1560,23; 5634,000; 2216,000; 6063,000;88,84845
1564,15; 5704,000; 2266,000; 6123,000;89,13663
1568,05; 5538,000; 2111,000; 5937,000;89,57135
1571,95; 5810,000; 2431,000; 6174,000;90,27518
1575,84; 5436,000; 2066,000; 5767,000;91,05647
1579,73; 5635,000; 2334,000; 5973,000;90,71173
1583,62; 5522,000; 2251,000; 5853,000;90,81066
1587,50; 5201,000; 1973,000; 5552,000;90,19279
1591,37; 5695,000; 2501,000; 6051,000;89,97183
1595,24; 5338,000; 2195,000; 5695,000;89,80000
1599,11; 5039,000; 1935,000; 5426,000;88,91435
1602,96; 5083,000; 2027,000; 5422,000;90,01473
1606,82; 4924,000; 1926,000; 5276,000;89,49254
1610,67; 5133,000; 2202,000; 5507,000;88,68381
1614,51; 5277,000; 2375,000; 5635,000;89,01840
1618,35; 4813,000; 1955,000; 5143,000;89,64868
1622,18; 4993,000; 2163,000; 5307,000;90,01272
1626,01; 4980,000; 2191,000; 5286,000;90,11309
1629,83; 4994,000; 2237,000; 5309,000;89,74609
1633,65; 5080,000; 2363,000; 5411,000;89,14042
1637,46; 4770,000; 2065,000; 5041,000;90,89382
1641,27; 4670,000; 2043,000; 4995,000;88,99051
1645,07; 4596,000; 2025,000; 4923,000;88,71636
1648,86; 4535,000; 2022,000; 4872,000;88,17544
1652,66; 4476,000; 2009,000; 4849,000;86,86620
1656,44; 4483,000; 2080,000; 4866,000;86,25269
1660,22; 4611,000; 2279,000; 5011,000;85,35871
1664,00; 4638,000; 2386,000; 5119,000;82,40029
1667,77; 4315,000; 2147,000; 4820,000;81,10737
1671,53; 4206,000; 2096,000; 4676,000;81,78295
1675,29; 4091,000; 1956,000; 4597,000;80,84059
1679,05; 4323,000; 2235,000; 4841,000;80,12279
1682,80; 4173,000; 2121,000; 4673,000;80,40752
1686,54; 4403,000; 2345,000; 4882,000;81,11943
1690,28; 4417,000; 2330,000; 4848,000;82,88324
1694,01; 3973,000; 1942,000; 4390,000;82,96569
1697,74; 4097,000; 2079,000; 4510,000;83,01111
1701,46; 4250,000; 2282,000; 4676,000;82,20551
1705,18; 3919,000; 2006,000; 4351,000;81,57783
1708,89; 3798,000; 1911,000; 4242,000;80,95238
1712,60; 4116,000; 2253,000; 4569,000;80,44041
1716,30; 4118,000; 2295,000; 4547,000;80,95027
1720,00; 4181,000; 2337,000; 4572,000;82,50559
1723,69; 4095,000; 2261,000; 4469,000;83,06159
1727,38; 3731,000; 1905,000; 4079,000;83,99264
1731,06; 4042,000; 2204,000; 4366,000;85,01388
1734,73; 4017,000; 2153,000; 4269,000;88,09074
1738,40; 3860,000; 1998,000; 4086,000;89,17625
1742,07; 4283,000; 2398,000; 4492,000;90,01910
1745,73; 3941,000; 2036,000; 4113,000;91,71883
1749,38; 4159,000; 2316,000; 4333,000;91,37333
1753,03; 4182,000; 2360,000; 4336,000;92,20648
1756,67; 3962,000; 2169,000; 4109,000;92,42268
1760,31; 4099,000; 2287,000; 4202,000;94,62141
1763,94; 4000,000; 2226,000; 4114,000;93,96186
1767,57; 3983,000; 2202,000; 4056,000;96,06257
1771,19; 3833,000; 2090,000; 3874,000;97,70179
1774,81; 3963,000; 2248,000; 4032,000;96,13229
1778,42; 3973,000; 2269,000; 4027,000;96,92833
1782,03; 3772,000; 2095,000; 3823,000;97,04861
1785,63; 3697,000; 2035,000; 3722,000;98,51808
1789,22; 3752,000; 2111,000; 3791,000;97,67857
1792,81; 3581,000; 1992,000; 3582,000;99,93711
1796,40; 3486,000; 1886,000; 3487,000;99,93754
1799,98; 4048,000; 2449,000; 4025,000;101,45939
1803,55; 3752,000; 2183,000; 3731,000;101,35659
1807,12; 3614,000; 2061,000; 3579,000;102,30567
1810,68; 4244,000; 2694,000; 4197,000;103,12708
1814,24; 3489,000; 1955,000; 3431,000;103,92954
1817,79; 3992,000; 2464,000; 3918,000;105,08941
1821,34; 4134,000; 2605,000; 4045,000;106,18056
1824,88; 3515,000; 2018,000; 3427,000;106,24556
1828,41; 3788,000; 2289,000; 3672,000;108,38756
1831,94; 3602,000; 2125,000; 3487,000;108,44347
1835,47; 3380,000; 1906,000; 3243,000;110,24682
1838,99; 3751,000; 2296,000; 3612,000;110,56231
1842,50; 3585,000; 2133,000; 3433,000;111,69231
1846,01; 3426,000; 2020,000; 3270,000;112,48000
1849,51; 3197,000; 1814,000; 3091,000;108,30070
1853,01; 3320,000; 1929,000; 3201,000;109,35535
1856,50; 4129,000; 2700,000; 3984,000;111,29283
1859,99; 3222,000; 1862,000; 3058,000;113,71237
1863,47; 3581,000; 2216,000; 3413,000;114,03509
1866,94; 3342,000; 2005,000; 3183,000;113,49745
1870,41; 3770,000; 2432,000; 3602,000;114,35897
1873,88; 3540,000; 2210,000; 3354,000;116,25874
1877,34; 3807,000; 2493,000; 3625,000;116,07774
1880,79; 3686,000; 2396,000; 3490,000;117,91590
1884,24; 3663,000; 2396,000; 3479,000;116,98984
1887,68; 3251,000; 2020,000; 3039,000;120,80471
1891,12; 3118,000; 1891,000; 2931,000;117,98077
1894,55; 3209,000; 2022,000; 3034,000;117,29249
1897,98; 3493,000; 2272,000; 3275,000;121,73480
1901,40; 3225,000; 2030,000; 3031,000;119,38062

