227_HDPE_FCR_2
Integration time [ms]: 100,000
Averaging Nr. [scans]: 1
Smoothing Nr. [pixels]: 0
Data measured with spectrometer [name]: 1204091U1
Wave   ;Sample   ;Dark     ;Reference;Reflectance
[nm]   ;[counts] ;[counts] ;[counts] ;[%]

1014,48; 7203,000; 2453,000; 7571,000;92,80969
1019,01; 7618,000; 2571,000; 8072,000;91,74696
1023,54; 8036,000; 2760,000; 8557,000;91,01259
1028,07; 8163,000; 2645,000; 8728,000;90,71182
1032,59; 8316,000; 2542,000; 8976,000;89,74200
1037,10; 8683,000; 2552,000; 9493,000;88,33021
1041,62; 9027,000; 2645,000; 9874,000;88,28330
1046,12; 9766,000; 3172,000;10692,000;87,68617
1050,62; 9495,000; 2658,000;10426,000;88,01493
1055,12; 9568,000; 2509,000;10544,000;87,85314
1059,62; 9553,000; 2352,000;10536,000;87,98876
1064,10;10179,000; 2726,000;11217,000;87,77529
1068,59;10563,000; 2932,000;11644,000;87,59183
1073,07;10653,000; 2693,000;11791,000;87,49176
1077,54;10752,000; 2612,000;11902,000;87,62110
1082,01;11152,000; 2824,000;12356,000;87,36886
1086,48;11395,000; 2801,000;12632,000;87,41735
1090,94;11093,000; 2380,000;12314,000;87,70888
1095,39;12360,000; 3344,000;13669,000;87,32203
1099,85;11936,000; 2612,000;13309,000;87,16463
1104,29;12242,000; 2682,000;13632,000;87,30594
1108,73;12063,000; 2312,000;13510,000;87,07805
1113,17;12860,000; 3042,000;14359,000;86,75444
1117,61;12630,000; 2646,000;14198,000;86,42659
1122,03;13142,000; 3046,000;14722,000;86,46797
1126,46;12763,000; 2527,000;14400,000;86,21241
1130,88;12773,000; 2466,000;14495,000;85,68460
1135,29;13424,000; 3111,000;15219,000;85,17509
1139,70;12855,000; 2407,000;14793,000;84,35330
1144,11;12881,000; 2489,000;14967,000;83,28258
1148,51;12867,000; 2565,000;15172,000;81,71651
1152,90;12776,000; 2579,000;15293,000;80,20293
1157,29;12324,000; 2339,000;15111,000;78,17883
1161,68;12315,000; 2547,000;15452,000;75,69159
1166,06;11964,000; 2534,000;15403,000;73,27687
1170,44;12003,000; 2810,000;15520,000;72,32887
1174,81;11416,000; 2521,000;14948,000;71,57802
1179,18;11332,000; 2667,000;15071,000;69,85650
1183,54;11121,000; 2847,000;15116,000;67,43826
1187,90;10846,000; 2891,000;15091,000;65,20492
1192,25;10295,000; 2667,000;14694,000;63,42396
1196,60; 9716,000; 2522,000;14434,000;60,39288
1200,94; 9408,000; 2733,000;14497,000;56,74090
1205,28; 8776,000; 2575,000;14032,000;54,12412
1209,62; 8607,000; 2673,000;14073,000;52,05263
1213,95; 8623,000; 2827,000;14061,000;51,59338
1218,27; 8306,000; 2397,000;13503,000;53,20547
1222,59; 9144,000; 3050,000;13756,000;56,92135
1226,91; 9324,000; 2791,000;13486,000;61,08462
1231,22; 9341,000; 2566,000;13022,000;64,79533
1235,52; 9195,000; 2255,000;12518,000;67,62155
1239,82; 9719,000; 2660,000;12731,000;70,09234
1244,12; 9568,000; 2513,000;12276,000;72,26262
1248,41; 9916,000; 2839,000;12479,000;73,41286
1252,70; 9134,000; 2157,000;11531,000;74,42927
1256,98; 9447,000; 2405,000;11723,000;75,57416
1261,26; 9931,000; 2898,000;12129,000;76,18893
1265,53; 9156,000; 2242,000;11284,000;76,46538
1269,80; 9360,000; 2393,000;11431,000;77,08564
1274,06; 9667,000; 2810,000;11639,000;77,66451
1278,32; 9361,000; 2550,000;11295,000;77,88451
1282,57; 9381,000; 2625,000;11256,000;78,27598
1286,82; 9164,000; 2467,000;11002,000;78,46514
1291,06; 9338,000; 2738,000;11125,000;78,69322
1295,30; 9261,000; 2653,000;11013,000;79,04306
1299,53; 9416,000; 2787,000;11181,000;78,97308
1303,76; 9192,000; 2600,000;10932,000;79,11666
1307,99; 9468,000; 2905,000;11203,000;79,09135
1312,20; 9341,000; 2833,000;11044,000;79,25953
1316,42; 8836,000; 2476,000;10478,000;79,48013
1320,63; 8836,000; 2579,000;10484,000;79,15244
1324,83; 8348,000; 2192,000; 9974,000;79,10563
1329,03; 8636,000; 2674,000;10257,000;78,62324
1333,23; 8376,000; 2468,000; 9986,000;78,58473
1337,42; 8598,000; 2764,000;10213,000;78,31924
1341,60; 8072,000; 2379,000; 9662,000;78,16834
1345,78; 8306,000; 2742,000; 9883,000;77,91626
1349,96; 7776,000; 2303,000; 9376,000;77,37876
1354,13; 7848,000; 2510,000; 9449,000;76,92751
1358,29; 7561,000; 2356,000; 9196,000;76,09649
1362,46; 7724,000; 2743,000; 9351,000;75,37833
1366,61; 7491,000; 2731,000; 9181,000;73,79845
1370,76; 6938,000; 2399,000; 8708,000;71,94484
1374,91; 7210,000; 2995,000; 9036,000;69,77322
1379,05; 6304,000; 2366,000; 8178,000;67,75637
1383,18; 6996,000; 3283,000; 9009,000;64,84457
1387,32; 5899,000; 2319,000; 8098,000;61,94843
1391,44; 5751,000; 2327,000; 8096,000;59,35171
1395,56; 6561,000; 3137,000; 8942,000;58,98363
1399,68; 5742,000; 2135,000; 8073,000;60,74436
1403,79; 5986,000; 2329,000; 8366,000;60,57645
1407,90; 5835,000; 2263,000; 8269,000;59,47386
1412,00; 5891,000; 2365,000; 8420,000;58,23287
1416,10; 6178,000; 2718,000; 8761,000;57,25633
1420,19; 5871,000; 2409,000; 8400,000;57,78668
1424,27; 6107,000; 2632,000; 8589,000;58,33473
1428,36; 6153,000; 2719,000; 8620,000;58,19353
1432,43; 6299,000; 2846,000; 8708,000;58,90481
1436,50; 5969,000; 2533,000; 8354,000;59,02766
1440,57; 6209,000; 2732,000; 8530,000;59,96895
1444,63; 5895,000; 2366,000; 8116,000;61,37391
1448,69; 5716,000; 2161,000; 7844,000;62,55499
1452,74; 6047,000; 2447,000; 8116,000;63,50326
1456,79; 5852,000; 2238,000; 7867,000;64,20323
1460,83; 6032,000; 2400,000; 7935,000;65,61879
1464,87; 6341,000; 2691,000; 8180,000;66,49663
1468,90; 6360,000; 2650,000; 8132,000;67,67603
1472,93; 6309,000; 2603,000; 7978,000;68,94884
1476,95; 6346,000; 2611,000; 7981,000;69,55307
1480,96; 6056,000; 2298,000; 7601,000;70,86555
1484,98; 6274,000; 2481,000; 7828,000;70,93697
1488,98; 6330,000; 2611,000; 7844,000;71,06822
1492,98; 6390,000; 2725,000; 7881,000;71,08223
1496,98; 6009,000; 2361,000; 7476,000;71,31965
1500,97; 6406,000; 2789,000; 7826,000;71,80862
1504,96; 5743,000; 2172,000; 7164,000;71,53446
1508,94; 6315,000; 2773,000; 7774,000;70,82583
1512,92; 5891,000; 2382,000; 7342,000;70,74597
1516,89; 5996,000; 2502,000; 7430,000;70,90097
1520,85; 5851,000; 2384,000; 7295,000;70,59662
1524,81; 6365,000; 2962,000; 7824,000;69,99177
1528,77; 5747,000; 2324,000; 7205,000;70,12907
1532,72; 5779,000; 2407,000; 7255,000;69,55446
1536,67; 6214,000; 2883,000; 7677,000;69,48269
1540,61; 5605,000; 2376,000; 7009,000;69,69566
1544,54; 5996,000; 2727,000; 7388,000;70,13516
1548,47; 5451,000; 2158,000; 6748,000;71,74292
1552,40; 5889,000; 2615,000; 7147,000;72,24184
1556,32; 5859,000; 2575,000; 7088,000;72,76756
1560,23; 5690,000; 2484,000; 6850,000;73,43106
1564,15; 5776,000; 2555,000; 6922,000;73,75773
1568,05; 5599,000; 2399,000; 6734,000;73,81776
1571,95; 5864,000; 2725,000; 6961,000;74,10293
1575,84; 5487,000; 2347,000; 6574,000;74,28436
1579,73; 5713,000; 2624,000; 6795,000;74,05898
1583,62; 5604,000; 2543,000; 6679,000;74,00870
1587,50; 5283,000; 2249,000; 6365,000;73,71234
1591,37; 5802,000; 2806,000; 6870,000;73,72047
1595,24; 5445,000; 2531,000; 6521,000;73,03258
1599,11; 5138,000; 2244,000; 6219,000;72,80503
1602,96; 5188,000; 2333,000; 6225,000;73,35560
1606,82; 5035,000; 2230,000; 6074,000;72,97086
1610,67; 5249,000; 2503,000; 6261,000;73,07078
1614,51; 5388,000; 2689,000; 6400,000;72,72972
1618,35; 4927,000; 2276,000; 5907,000;73,01019
1622,18; 5128,000; 2494,000; 6062,000;73,82287
1626,01; 5089,000; 2495,000; 6059,000;72,78339
1629,83; 5080,000; 2571,000; 6064,000;71,82937
1633,65; 5174,000; 2670,000; 6118,000;72,62181
1637,46; 4875,000; 2400,000; 5785,000;73,11669
1641,27; 4800,000; 2327,000; 5711,000;73,07920
1645,07; 4726,000; 2289,000; 5633,000;72,87679
1648,86; 4682,000; 2319,000; 5590,000;72,24090
1652,66; 4615,000; 2259,000; 5557,000;71,43723
1656,44; 4649,000; 2366,000; 5600,000;70,59369
1660,22; 4748,000; 2535,000; 5719,000;69,50377
1664,00; 4841,000; 2684,000; 5850,000;68,13013
1667,77; 4535,000; 2449,000; 5553,000;67,20361
1671,53; 4427,000; 2433,000; 5436,000;66,40027
1675,29; 4248,000; 2285,000; 5318,000;64,72140
1679,05; 4422,000; 2563,000; 5561,000;62,00801
1682,80; 4250,000; 2442,000; 5389,000;61,35053
1686,54; 4453,000; 2708,000; 5604,000;60,25552
1690,28; 4357,000; 2658,000; 5556,000;58,62664
1694,01; 3856,000; 2248,000; 5057,000;57,24457
1697,74; 3927,000; 2391,000; 5182,000;55,03404
1701,46; 4027,000; 2601,000; 5350,000;51,87341
1705,18; 3626,000; 2310,000; 4996,000;48,99479
1708,89; 3434,000; 2233,000; 4884,000;45,30366
1712,60; 3720,000; 2612,000; 5224,000;42,41960
1716,30; 3661,000; 2623,000; 5179,000;40,61033
1720,00; 3665,000; 2660,000; 5201,000;39,55136
1723,69; 3535,000; 2563,000; 5072,000;38,74053
1727,38; 3139,000; 2204,000; 4712,000;37,28070
1731,06; 3446,000; 2496,000; 4968,000;38,43042
1734,73; 3448,000; 2459,000; 4917,000;40,23596
1738,40; 3340,000; 2292,000; 4734,000;42,91564
1742,07; 3765,000; 2663,000; 5138,000;44,52525
1745,73; 3437,000; 2312,000; 4760,000;45,95588
1749,38; 3717,000; 2592,000; 5014,000;46,44922
1753,03; 3804,000; 2685,000; 5008,000;48,17047
1756,67; 3518,000; 2466,000; 4783,000;45,40354
1760,31; 3618,000; 2637,000; 4863,000;44,07008
1763,94; 3554,000; 2564,000; 4778,000;44,71545
1767,57; 3538,000; 2562,000; 4713,000;45,37424
1771,19; 3448,000; 2442,000; 4522,000;48,36538
1774,81; 3617,000; 2565,000; 4651,000;50,43145
1778,42; 3649,000; 2584,000; 4617,000;52,38564
1782,03; 3469,000; 2412,000; 4445,000;51,99213
1785,63; 3409,000; 2341,000; 4330,000;53,69532
1789,22; 3462,000; 2405,000; 4385,000;53,38384
1792,81; 3320,000; 2278,000; 4185,000;54,64080
1796,40; 3200,000; 2182,000; 4076,000;53,74868
1799,98; 3732,000; 2714,000; 4598,000;54,03397
1803,55; 3472,000; 2460,000; 4327,000;54,20461
1807,12; 3365,000; 2348,000; 4172,000;55,75658
1810,68; 3988,000; 2987,000; 4794,000;55,39568
1814,24; 3232,000; 2255,000; 4030,000;55,04225
1817,79; 3748,000; 2759,000; 4513,000;56,38540
1821,34; 3888,000; 2932,000; 4641,000;55,93915
1824,88; 3294,000; 2324,000; 4030,000;56,85815
1828,41; 3578,000; 2587,000; 4283,000;58,43160
1831,94; 3394,000; 2421,000; 4081,000;58,61446
1835,47; 3180,000; 2217,000; 3864,000;58,46995
1838,99; 3548,000; 2598,000; 4226,000;58,35381
1842,50; 3369,000; 2418,000; 4025,000;59,17859
1846,01; 3263,000; 2307,000; 3885,000;60,58302
1849,51; 3081,000; 2156,000; 3694,000;60,14304
1853,01; 3200,000; 2262,000; 3774,000;62,03704
1856,50; 4004,000; 3049,000; 4559,000;63,24503
1859,99; 3122,000; 2201,000; 3668,000;62,78119
1863,47; 3483,000; 2547,000; 3994,000;64,68556
1866,94; 3236,000; 2314,000; 3711,000;65,99857
1870,41; 3682,000; 2737,000; 4119,000;68,37916
1873,88; 3474,000; 2520,000; 3897,000;69,28105
1877,34; 3757,000; 2792,000; 4172,000;69,92754
1880,79; 3643,000; 2713,000; 4037,000;70,24169
1884,24; 3594,000; 2665,000; 3995,000;69,84962
1887,68; 3207,000; 2302,000; 3591,000;70,20946
1891,12; 3075,000; 2172,000; 3462,000;70,00000
1894,55; 3214,000; 2296,000; 3582,000;71,38414
1897,98; 3455,000; 2564,000; 3828,000;70,49051
1901,40; 3221,000; 2344,000; 3603,000;69,65846

