305_PS_FCR_3
Integration time [ms]: 100,000
Averaging Nr. [scans]: 1
Smoothing Nr. [pixels]: 0
Data measured with spectrometer [name]: 1204091U1
Wave   ;Sample   ;Dark     ;Reference;Reflectance
[nm]   ;[counts] ;[counts] ;[counts] ;[%]

1014,48; 8108,000; 2453,000; 7571,000;110,49238
1019,01; 8581,000; 2571,000; 8072,000;109,25286
1023,54; 9070,000; 2760,000; 8557,000;108,84940
1028,07; 9246,000; 2645,000; 8728,000;108,51554
1032,59; 9485,000; 2542,000; 8976,000;107,91110
1037,10; 9930,000; 2552,000; 9493,000;106,29592
1041,62;10308,000; 2645,000; 9874,000;106,00360
1046,12;11067,000; 3172,000;10692,000;104,98670
1050,62;10825,000; 2658,000;10426,000;105,13646
1055,12;10940,000; 2509,000;10544,000;104,92844
1059,62;10901,000; 2352,000;10536,000;104,45992
1064,10;11600,000; 2726,000;11217,000;104,51066
1068,59;12013,000; 2932,000;11644,000;104,23554
1073,07;12158,000; 2693,000;11791,000;104,03385
1077,54;12274,000; 2612,000;11902,000;104,00431
1082,01;12706,000; 2824,000;12356,000;103,67184
1086,48;12992,000; 2801,000;12632,000;103,66189
1090,94;12706,000; 2380,000;12314,000;103,94604
1095,39;14037,000; 3344,000;13669,000;103,56416
1099,85;13645,000; 2612,000;13309,000;103,14107
1104,29;13915,000; 2682,000;13632,000;102,58447
1108,73;13726,000; 2312,000;13510,000;101,92892
1113,17;14443,000; 3042,000;14359,000;100,74225
1117,61;14114,000; 2646,000;14198,000;99,27285
1122,03;14442,000; 3046,000;14722,000;97,60192
1126,46;13789,000; 2527,000;14400,000;94,85387
1130,88;13451,000; 2466,000;14495,000;91,32097
1135,29;13695,000; 3111,000;15219,000;87,41328
1139,70;12841,000; 2407,000;14793,000;84,24027
1144,11;12905,000; 2489,000;14967,000;83,47492
1148,51;13272,000; 2565,000;15172,000;84,92901
1152,90;13791,000; 2579,000;15293,000;88,18625
1157,29;13997,000; 2339,000;15111,000;91,27780
1161,68;14562,000; 2547,000;15452,000;93,10345
1166,06;14658,000; 2534,000;15403,000;94,21089
1170,44;14824,000; 2810,000;15520,000;94,52400
1174,81;14297,000; 2521,000;14948,000;94,76141
1179,18;14396,000; 2667,000;15071,000;94,55821
1183,54;14393,000; 2847,000;15116,000;94,10710
1187,90;14259,000; 2891,000;15091,000;93,18033
1192,25;13764,000; 2667,000;14694,000;92,26740
1196,60;13374,000; 2522,000;14434,000;91,10141
1200,94;13378,000; 2733,000;14497,000;90,48793
1205,28;12940,000; 2575,000;14032,000;90,46871
1209,62;12977,000; 2673,000;14073,000;90,38596
1213,95;13102,000; 2827,000;14061,000;91,46341
1218,27;12695,000; 2397,000;13503,000;92,72465
1222,59;13149,000; 3050,000;13756,000;94,33028
1226,91;13010,000; 2791,000;13486,000;95,54932
1231,22;12686,000; 2566,000;13022,000;96,78653
1235,52;12263,000; 2255,000;12518,000;97,51535
1239,82;12557,000; 2660,000;12731,000;98,27227
1244,12;12172,000; 2513,000;12276,000;98,93475
1248,41;12417,000; 2839,000;12479,000;99,35685
1252,70;11527,000; 2157,000;11531,000;99,95733
1256,98;11761,000; 2405,000;11723,000;100,40781
1261,26;12158,000; 2898,000;12129,000;100,31416
1265,53;11370,000; 2242,000;11284,000;100,95112
1269,80;11528,000; 2393,000;11431,000;101,07325
1274,06;11773,000; 2810,000;11639,000;101,51773
1278,32;11414,000; 2550,000;11295,000;101,36078
1282,57;11409,000; 2625,000;11256,000;101,77268
1286,82;11163,000; 2467,000;11002,000;101,88635
1291,06;11276,000; 2738,000;11125,000;101,80041
1295,30;11178,000; 2653,000;11013,000;101,97368
1299,53;11311,000; 2787,000;11181,000;101,54873
1303,76;11092,000; 2600,000;10932,000;101,92031
1307,99;11343,000; 2905,000;11203,000;101,68715
1312,20;11176,000; 2833,000;11044,000;101,60760
1316,42;10579,000; 2476,000;10478,000;101,26218
1320,63;10567,000; 2579,000;10484,000;101,04997
1324,83;10034,000; 2192,000; 9974,000;100,77101
1329,03;10321,000; 2674,000;10257,000;100,84399
1333,23;10012,000; 2468,000; 9986,000;100,34584
1337,42;10225,000; 2764,000;10213,000;100,16110
1341,60; 9661,000; 2379,000; 9662,000;99,98627
1345,78; 9889,000; 2742,000; 9883,000;100,08402
1349,96; 9370,000; 2303,000; 9376,000;99,91517
1354,13; 9444,000; 2510,000; 9449,000;99,92794
1358,29; 9214,000; 2356,000; 9196,000;100,26316
1362,46; 9338,000; 2743,000; 9351,000;99,80327
1366,61; 9140,000; 2731,000; 9181,000;99,36434
1370,76; 8643,000; 2399,000; 8708,000;98,96973
1374,91; 8954,000; 2995,000; 9036,000;98,64261
1379,05; 8101,000; 2366,000; 8178,000;98,67515
1383,18; 8853,000; 3283,000; 9009,000;97,27559
1387,32; 7912,000; 2319,000; 8098,000;96,78145
1391,44; 7915,000; 2327,000; 8096,000;96,86254
1395,56; 8751,000; 3137,000; 8942,000;96,70973
1399,68; 7846,000; 2135,000; 8073,000;96,17716
1403,79; 8100,000; 2329,000; 8366,000;95,59384
1407,90; 8020,000; 2263,000; 8269,000;95,85415
1412,00; 8095,000; 2365,000; 8420,000;94,63254
1416,10; 8437,000; 2718,000; 8761,000;94,63842
1420,19; 8113,000; 2409,000; 8400,000;95,20948
1424,27; 8320,000; 2632,000; 8589,000;95,48430
1428,36; 8352,000; 2719,000; 8620,000;95,45840
1432,43; 8439,000; 2846,000; 8708,000;95,41112
1436,50; 8090,000; 2533,000; 8354,000;95,46470
1440,57; 8284,000; 2732,000; 8530,000;95,75716
1444,63; 7914,000; 2366,000; 8116,000;96,48696
1448,69; 7692,000; 2161,000; 7844,000;97,32536
1452,74; 7983,000; 2447,000; 8116,000;97,65391
1456,79; 7747,000; 2238,000; 7867,000;97,86818
1460,83; 7866,000; 2400,000; 7935,000;98,75339
1464,87; 8107,000; 2691,000; 8180,000;98,67007
1468,90; 8074,000; 2650,000; 8132,000;98,94199
1472,93; 7969,000; 2603,000; 7978,000;99,83256
1476,95; 7933,000; 2611,000; 7981,000;99,10615
1480,96; 7617,000; 2298,000; 7601,000;100,30172
1484,98; 7833,000; 2481,000; 7828,000;100,09351
1488,98; 7841,000; 2611,000; 7844,000;99,94267
1492,98; 7892,000; 2725,000; 7881,000;100,21334
1496,98; 7488,000; 2361,000; 7476,000;100,23460
1500,97; 7890,000; 2789,000; 7826,000;101,27060
1504,96; 7234,000; 2172,000; 7164,000;101,40224
1508,94; 7822,000; 2773,000; 7774,000;100,95981
1512,92; 7376,000; 2382,000; 7342,000;100,68548
1516,89; 7474,000; 2502,000; 7430,000;100,89286
1520,85; 7373,000; 2384,000; 7295,000;101,58827
1524,81; 7877,000; 2962,000; 7824,000;101,09009
1528,77; 7255,000; 2324,000; 7205,000;101,02438
1532,72; 7318,000; 2407,000; 7255,000;101,29950
1536,67; 7749,000; 2883,000; 7677,000;101,50188
1540,61; 7152,000; 2376,000; 7009,000;103,08655
1544,54; 7514,000; 2727,000; 7388,000;102,70328
1548,47; 6921,000; 2158,000; 6748,000;103,76906
1552,40; 7331,000; 2615,000; 7147,000;104,06002
1556,32; 7250,000; 2575,000; 7088,000;103,58963
1560,23; 7048,000; 2484,000; 6850,000;104,53504
1564,15; 7117,000; 2555,000; 6922,000;104,46531
1568,05; 6920,000; 2399,000; 6734,000;104,29066
1571,95; 7151,000; 2725,000; 6961,000;104,48536
1575,84; 6735,000; 2347,000; 6574,000;103,80885
1579,73; 6954,000; 2624,000; 6795,000;103,81204
1583,62; 6834,000; 2543,000; 6679,000;103,74758
1587,50; 6480,000; 2249,000; 6365,000;102,79397
1591,37; 6965,000; 2806,000; 6870,000;102,33760
1595,24; 6621,000; 2531,000; 6521,000;102,50627
1599,11; 6289,000; 2244,000; 6219,000;101,76101
1602,96; 6299,000; 2333,000; 6225,000;101,90134
1606,82; 6104,000; 2230,000; 6074,000;100,78044
1610,67; 6270,000; 2503,000; 6261,000;100,23949
1614,51; 6366,000; 2689,000; 6400,000;99,08380
1618,35; 5836,000; 2276,000; 5907,000;98,04462
1622,18; 5943,000; 2494,000; 6062,000;96,66480
1626,01; 5800,000; 2495,000; 6059,000;92,73288
1629,83; 5767,000; 2571,000; 6064,000;91,49728
1633,65; 5791,000; 2670,000; 6118,000;90,51624
1637,46; 5444,000; 2400,000; 5785,000;89,92614
1641,27; 5359,000; 2327,000; 5711,000;89,59811
1645,07; 5302,000; 2289,000; 5633,000;90,10167
1648,86; 5253,000; 2319,000; 5590,000;89,69734
1652,66; 5189,000; 2259,000; 5557,000;88,84172
1656,44; 5176,000; 2366,000; 5600,000;86,88930
1660,22; 5145,000; 2535,000; 5719,000;81,97236
1664,00; 5169,000; 2684,000; 5850,000;78,49021
1667,77; 4770,000; 2449,000; 5553,000;74,77448
1671,53; 4612,000; 2433,000; 5436,000;72,56077
1675,29; 4468,000; 2285,000; 5318,000;71,97494
1679,05; 4700,000; 2563,000; 5561,000;71,28085
1682,80; 4570,000; 2442,000; 5389,000;72,20903
1686,54; 4849,000; 2708,000; 5604,000;73,92956
1690,28; 4830,000; 2658,000; 5556,000;74,94824
1694,01; 4436,000; 2248,000; 5057,000;77,89249
1697,74; 4614,000; 2391,000; 5182,000;79,64887
1701,46; 4839,000; 2601,000; 5350,000;81,41142
1705,18; 4578,000; 2310,000; 4996,000;84,43783
1708,89; 4497,000; 2233,000; 4884,000;85,40174
1712,60; 4848,000; 2612,000; 5224,000;85,60490
1716,30; 4867,000; 2623,000; 5179,000;87,79343
1720,00; 4887,000; 2660,000; 5201,000;87,64266
1723,69; 4791,000; 2563,000; 5072,000;88,80032
1727,38; 4446,000; 2204,000; 4712,000;89,39394
1731,06; 4750,000; 2496,000; 4968,000;91,18123
1734,73; 4737,000; 2459,000; 4917,000;92,67697
1738,40; 4633,000; 2292,000; 4734,000;95,86405
1742,07; 4991,000; 2663,000; 5138,000;94,06061
1745,73; 4631,000; 2312,000; 4760,000;94,73039
1749,38; 4849,000; 2592,000; 5014,000;93,18745
1753,03; 4890,000; 2685,000; 5008,000;94,92036
1756,67; 4610,000; 2466,000; 4783,000;92,53345
1760,31; 4713,000; 2637,000; 4863,000;93,26146
1763,94; 4645,000; 2564,000; 4778,000;93,99277
1767,57; 4606,000; 2562,000; 4713,000;95,02557
1771,19; 4517,000; 2442,000; 4522,000;99,75962
1774,81; 4653,000; 2565,000; 4651,000;100,09588
1778,42; 4648,000; 2584,000; 4617,000;101,52484
1782,03; 4474,000; 2412,000; 4445,000;101,42646
1785,63; 4393,000; 2341,000; 4330,000;103,16742
1789,22; 4464,000; 2405,000; 4385,000;103,98990
1792,81; 4288,000; 2278,000; 4185,000;105,40115
1796,40; 4198,000; 2182,000; 4076,000;106,44139
1799,98; 4733,000; 2714,000; 4598,000;107,16561
1803,55; 4464,000; 2460,000; 4327,000;107,33798
1807,12; 4298,000; 2348,000; 4172,000;106,90789
1810,68; 4942,000; 2987,000; 4794,000;108,19037
1814,24; 4205,000; 2255,000; 4030,000;109,85915
1817,79; 4692,000; 2759,000; 4513,000;110,20525
1821,34; 4846,000; 2932,000; 4641,000;111,99532
1824,88; 4225,000; 2324,000; 4030,000;111,43025
1828,41; 4483,000; 2587,000; 4283,000;111,79245
1831,94; 4286,000; 2421,000; 4081,000;112,34940
1835,47; 4066,000; 2217,000; 3864,000;112,26472
1838,99; 4435,000; 2598,000; 4226,000;112,83784
1842,50; 4240,000; 2418,000; 4025,000;113,37897
1846,01; 4111,000; 2307,000; 3885,000;114,32193
1849,51; 3943,000; 2156,000; 3694,000;116,18986
1853,01; 4003,000; 2262,000; 3774,000;115,14550
1856,50; 4789,000; 3049,000; 4559,000;115,23179
1859,99; 3928,000; 2201,000; 3668,000;117,72324
1863,47; 4271,000; 2547,000; 3994,000;119,14305
1866,94; 4011,000; 2314,000; 3711,000;121,47459
1870,41; 4405,000; 2737,000; 4119,000;120,69465
1873,88; 4232,000; 2520,000; 3897,000;124,32825
1877,34; 4514,000; 2792,000; 4172,000;124,78261
1880,79; 4395,000; 2713,000; 4037,000;127,03927
1884,24; 4343,000; 2665,000; 3995,000;126,16541
1887,68; 3968,000; 2302,000; 3591,000;129,24748
1891,12; 3818,000; 2172,000; 3462,000;127,59690
1894,55; 3941,000; 2296,000; 3582,000;127,91602
1897,98; 4195,000; 2564,000; 3828,000;129,03481
1901,40; 3939,000; 2344,000; 3603,000;126,68785

