3mm_PC_FCR_2
Integration time [ms]: 100,000
Averaging Nr. [scans]: 1
Smoothing Nr. [pixels]: 0
Data measured with spectrometer [name]: 1204091U1
Wave   ;Sample   ;Dark     ;Reference;Reflectance
[nm]   ;[counts] ;[counts] ;[counts] ;[%]

1014,48;12294,000; 2159,000; 6686,000;223,87895
1019,01;13095,000; 2263,000; 7134,000;222,37734
1023,54;13861,000; 2460,000; 7582,000;222,58883
1028,07;14274,000; 2357,000; 7740,000;221,38213
1032,59;14837,000; 2222,000; 7947,000;220,34934
1037,10;15707,000; 2251,000; 8409,000;218,51250
1041,62;16389,000; 2335,000; 8775,000;218,22981
1046,12;17444,000; 2824,000; 9555,000;217,20398
1050,62;17355,000; 2300,000; 9240,000;216,93084
1055,12;17758,000; 2181,000; 9387,000;216,16708
1059,62;17927,000; 2009,000; 9358,000;216,60090
1064,10;18874,000; 2401,000;10031,000;215,89777
1068,59;19472,000; 2570,000;10411,000;215,55924
1073,07;19973,000; 2356,000;10516,000;215,89461
1077,54;20235,000; 2278,000;10631,000;214,97666
1082,01;20907,000; 2486,000;11025,000;215,72784
1086,48;21417,000; 2488,000;11325,000;214,20165
1090,94;21190,000; 2081,000;10975,000;214,85271
1095,39;22752,000; 3026,000;12290,000;212,93178
1099,85;22529,000; 2345,000;11921,000;210,77694
1104,29;22859,000; 2403,000;12226,000;208,24595
1108,73;22622,000; 2060,000;12064,000;205,53778
1113,17;23115,000; 2768,000;12897,000;200,87867
1117,61;22488,000; 2351,000;12709,000;194,41012
1122,03;22296,000; 2714,000;13178,000;187,13685
1126,46;21271,000; 2237,000;12873,000;178,95825
1130,88;20577,000; 2154,000;12946,000;170,70979
1135,29;21085,000; 2780,000;13624,000;168,80302
1139,70;21352,000; 2109,000;13204,000;173,43849
1144,11;22382,000; 2181,000;13375,000;180,46275
1148,51;23339,000; 2244,000;13522,000;187,04558
1152,90;24156,000; 2301,000;13707,000;191,60968
1157,29;24364,000; 2006,000;13470,000;195,02791
1161,68;24786,000; 2262,000;13824,000;194,81059
1166,06;24545,000; 2248,000;13803,000;192,96408
1170,44;24317,000; 2494,000;13961,000;190,31133
1174,81;23202,000; 2196,000;13387,000;187,70441
1179,18;23052,000; 2339,000;13505,000;185,50063
1183,54;22667,000; 2531,000;13570,000;182,40783
1187,90;22598,000; 2580,000;13523,000;182,92973
1192,25;22812,000; 2379,000;13172,000;189,31715
1196,60;23415,000; 2222,000;12903,000;198,41775
1200,94;24058,000; 2485,000;12994,000;205,28119
1205,28;23805,000; 2285,000;12529,000;210,07419
1209,62;24033,000; 2418,000;12639,000;211,47637
1213,95;24028,000; 2543,000;12596,000;213,71730
1218,27;23557,000; 2113,000;12057,000;215,64763
1222,59;23567,000; 2762,000;12319,000;217,69384
1226,91;23222,000; 2482,000;12036,000;217,08185
1231,22;22782,000; 2269,000;11621,000;219,34346
1235,52;22128,000; 1935,000;11126,000;219,70406
1239,82;22200,000; 2360,000;11354,000;220,59151
1244,12;21677,000; 2191,000;10953,000;222,39215
1248,41;21871,000; 2519,000;11152,000;224,16310
1252,70;20753,000; 1808,000;10246,000;224,52003
1256,98;20982,000; 2069,000;10481,000;224,83357
1261,26;21474,000; 2578,000;10887,000;227,41605
1265,53;20466,000; 1911,000;10040,000;228,25686
1269,80;20647,000; 2085,000;10196,000;228,84971
1274,06;20754,000; 2472,000;10429,000;229,75996
1278,32;20457,000; 2246,000;10116,000;231,39771
1282,57;20343,000; 2315,000;10115,000;231,12821
1286,82;19943,000; 2159,000; 9878,000;230,39254
1291,06;20091,000; 2434,000; 9974,000;234,17772
1295,30;20003,000; 2354,000; 9886,000;234,32023
1299,53;20214,000; 2461,000;10030,000;234,54882
1303,76;19957,000; 2315,000; 9771,000;236,61481
1307,99;20237,000; 2633,000;10041,000;237,63499
1312,20;19823,000; 2539,000; 9875,000;235,60523
1316,42;19061,000; 2175,000; 9339,000;235,70631
1320,63;18953,000; 2246,000; 9303,000;236,74366
1324,83;18304,000; 1875,000; 8811,000;236,86563
1329,03;18356,000; 2294,000; 9122,000;235,23726
1333,23;17801,000; 2137,000; 8853,000;233,23407
1337,42;17960,000; 2453,000; 9095,000;233,46883
1341,60;17204,000; 2063,000; 8573,000;232,58065
1345,78;17098,000; 2407,000; 8779,000;230,55556
1349,96;16276,000; 1977,000; 8295,000;226,32162
1354,13;15962,000; 2218,000; 8428,000;221,32045
1358,29;15464,000; 2040,000; 8181,000;218,59632
1362,46;15314,000; 2455,000; 8370,000;217,39645
1366,61;14919,000; 2409,000; 8197,000;216,13683
1370,76;14220,000; 2106,000; 7751,000;214,59699
1374,91;14303,000; 2653,000; 8072,000;214,98431
1379,05;13310,000; 2056,000; 7236,000;217,25869
1383,18;14013,000; 2983,000; 8057,000;217,38274
1387,32;13019,000; 2042,000; 7174,000;213,89322
1391,44;13078,000; 2029,000; 7155,000;215,54819
1395,56;13929,000; 2838,000; 7994,000;215,10861
1399,68;13301,000; 1864,000; 7116,000;217,76466
1403,79;13602,000; 2045,000; 7382,000;216,54488
1407,90;13491,000; 1975,000; 7279,000;217,11916
1412,00;13823,000; 2064,000; 7433,000;219,01658
1416,10;14260,000; 2407,000; 7775,000;220,80849
1420,19;14034,000; 2106,000; 7422,000;224,37923
1424,27;14083,000; 2292,000; 7597,000;222,26202
1428,36;14159,000; 2373,000; 7627,000;224,32432
1432,43;14267,000; 2538,000; 7760,000;224,60743
1436,50;13916,000; 2221,000; 7397,000;225,94668
1440,57;14147,000; 2379,000; 7559,000;227,18147
1444,63;13681,000; 2054,000; 7190,000;226,38240
1448,69;13529,000; 1832,000; 6909,000;230,39196
1452,74;13801,000; 2149,000; 7178,000;231,69616
1456,79;13422,000; 1924,000; 6934,000;229,50100
1460,83;13551,000; 2085,000; 7017,000;232,48175
1464,87;13714,000; 2389,000; 7273,000;231,87961
1468,90;13770,000; 2366,000; 7250,000;233,49713
1472,93;13470,000; 2274,000; 7073,000;233,29860
1476,95;13599,000; 2304,000; 7073,000;236,84211
1480,96;13219,000; 2026,000; 6740,000;237,44166
1484,98;13495,000; 2214,000; 6916,000;239,91918
1488,98;13317,000; 2321,000; 6981,000;235,96567
1492,98;13379,000; 2415,000; 6974,000;240,49134
1496,98;12957,000; 2066,000; 6594,000;240,52562
1500,97;13229,000; 2503,000; 6934,000;242,06725
1504,96;12693,000; 1869,000; 6310,000;243,72889
1508,94;13198,000; 2442,000; 6874,000;242,68953
1512,92;12743,000; 2047,000; 6459,000;242,42974
1516,89;12912,000; 2181,000; 6559,000;245,11192
1520,85;12894,000; 2039,000; 6397,000;249,08215
1524,81;13372,000; 2622,000; 6923,000;249,94187
1528,77;12675,000; 1993,000; 6335,000;246,01566
1532,72;12833,000; 2083,000; 6385,000;249,88377
1536,67;13030,000; 2574,000; 6827,000;245,84999
1540,61;12221,000; 2053,000; 6158,000;247,69793
1544,54;12656,000; 2397,000; 6559,000;246,49207
1548,47;12057,000; 1870,000; 5963,000;248,88835
1552,40;12104,000; 2311,000; 6340,000;243,06279
1556,32;12127,000; 2289,000; 6299,000;245,33666
1560,23;11866,000; 2216,000; 6063,000;250,84481
1564,15;11938,000; 2266,000; 6123,000;250,76484
1568,05;11598,000; 2111,000; 5937,000;247,96132
1571,95;11806,000; 2431,000; 6174,000;250,46754
1575,84;11453,000; 2066,000; 5767,000;253,63415
1579,73;11367,000; 2334,000; 5973,000;248,22754
1583,62;11093,000; 2251,000; 5853,000;245,47474
1587,50;10567,000; 1973,000; 5552,000;240,12294
1591,37;10945,000; 2501,000; 6051,000;237,85915
1595,24;10484,000; 2195,000; 5695,000;236,82857
1599,11;10029,000; 1935,000; 5426,000;231,85334
1602,96; 9930,000; 2027,000; 5422,000;232,78351
1606,82; 9547,000; 1926,000; 5276,000;227,49254
1610,67; 9516,000; 2202,000; 5507,000;221,30106
1614,51; 9420,000; 2375,000; 5635,000;216,10429
1618,35; 8512,000; 1955,000; 5143,000;205,67754
1622,18; 8485,000; 2163,000; 5307,000;201,08142
1626,01; 8169,000; 2191,000; 5286,000;193,15024
1629,83; 7818,000; 2237,000; 5309,000;181,67318
1633,65; 7692,000; 2363,000; 5411,000;174,83596
1637,46; 6950,000; 2065,000; 5041,000;164,14651
1641,27; 6640,000; 2043,000; 4995,000;155,72493
1645,07; 6172,000; 2025,000; 4923,000;143,09869
1648,86; 5765,000; 2022,000; 4872,000;131,33333
1652,66; 5690,000; 2009,000; 4849,000;129,61268
1656,44; 5519,000; 2080,000; 4866,000;123,43862
1660,22; 5608,000; 2279,000; 5011,000;121,85212
1664,00; 5650,000; 2386,000; 5119,000;119,42920
1667,77; 5316,000; 2147,000; 4820,000;118,55593
1671,53; 5185,000; 2096,000; 4676,000;119,72868
1675,29; 5153,000; 1956,000; 4597,000;121,05263
1679,05; 5462,000; 2235,000; 4841,000;123,82962
1682,80; 5309,000; 2121,000; 4673,000;124,92163
1686,54; 5484,000; 2345,000; 4882,000;123,72881
1690,28; 5496,000; 2330,000; 4848,000;125,73471
1694,01; 5110,000; 1942,000; 4390,000;129,41176
1697,74; 5405,000; 2079,000; 4510,000;136,81613
1701,46; 5668,000; 2282,000; 4676,000;141,43693
1705,18; 5590,000; 2006,000; 4351,000;152,83582
1708,89; 5514,000; 1911,000; 4242,000;154,56885
1712,60; 5961,000; 2253,000; 4569,000;160,10363
1716,30; 5890,000; 2295,000; 4547,000;159,63588
1720,00; 5872,000; 2337,000; 4572,000;158,16555
1723,69; 5885,000; 2261,000; 4469,000;164,13043
1727,38; 5535,000; 1905,000; 4079,000;166,97332
1731,06; 5704,000; 2204,000; 4366,000;161,88714
1734,73; 5601,000; 2153,000; 4269,000;162,94896
1738,40; 5548,000; 1998,000; 4086,000;170,01916
1742,07; 6074,000; 2398,000; 4492,000;175,54919
1745,73; 5995,000; 2036,000; 4113,000;190,61146
1749,38; 6268,000; 2316,000; 4333,000;195,93456
1753,03; 6226,000; 2360,000; 4336,000;195,64777
1756,67; 5984,000; 2169,000; 4109,000;196,64948
1760,31; 6045,000; 2287,000; 4202,000;196,24021
1763,94; 5891,000; 2226,000; 4114,000;194,12076
1767,57; 5790,000; 2202,000; 4056,000;193,52751
1771,19; 5741,000; 2090,000; 3874,000;204,65247
1774,81; 5892,000; 2248,000; 4032,000;204,26009
1778,42; 5954,000; 2269,000; 4027,000;209,61320
1782,03; 5891,000; 2095,000; 3823,000;219,67593
1785,63; 5791,000; 2035,000; 3722,000;222,64375
1789,22; 5724,000; 2111,000; 3791,000;215,05952
1792,81; 5518,000; 1992,000; 3582,000;221,76101
1796,40; 5419,000; 1886,000; 3487,000;220,67458
1799,98; 5957,000; 2449,000; 4025,000;222,58883
1803,55; 5655,000; 2183,000; 3731,000;224,28941
1807,12; 5526,000; 2061,000; 3579,000;228,26087
1810,68; 6215,000; 2694,000; 4197,000;234,26480
1814,24; 5307,000; 1955,000; 3431,000;227,10027
1817,79; 5696,000; 2464,000; 3918,000;222,28336
1821,34; 5813,000; 2605,000; 4045,000;222,77778
1824,88; 5181,000; 2018,000; 3427,000;224,48545
1828,41; 5443,000; 2289,000; 3672,000;228,05495
1831,94; 5251,000; 2125,000; 3487,000;229,51542
1835,47; 5024,000; 1906,000; 3243,000;233,20868
1838,99; 5346,000; 2296,000; 3612,000;231,76292
1842,50; 5230,000; 2133,000; 3433,000;238,23077
1846,01; 5073,000; 2020,000; 3270,000;244,24000
1849,51; 4847,000; 1814,000; 3091,000;237,50979
1853,01; 4876,000; 1929,000; 3201,000;231,68239
1856,50; 5659,000; 2700,000; 3984,000;230,45171
1859,99; 4769,000; 1862,000; 3058,000;243,06020
1863,47; 5080,000; 2216,000; 3413,000;239,26483
1866,94; 4737,000; 2005,000; 3183,000;231,91851
1870,41; 5198,000; 2432,000; 3602,000;236,41026
1873,88; 4979,000; 2210,000; 3354,000;242,04545
1877,34; 5186,000; 2493,000; 3625,000;237,89753
1880,79; 5058,000; 2396,000; 3490,000;243,32724
1884,24; 4978,000; 2396,000; 3479,000;238,41182
1887,68; 4525,000; 2020,000; 3039,000;245,82924
1891,12; 4331,000; 1891,000; 2931,000;234,61538
1894,55; 4365,000; 2022,000; 3034,000;231,52174
1897,98; 4629,000; 2272,000; 3275,000;234,99501
1901,40; 4289,000; 2030,000; 3031,000;225,67433

