4mm_PS_FCR_2
Integration time [ms]: 100,000
Averaging Nr. [scans]: 1
Smoothing Nr. [pixels]: 0
Data measured with spectrometer [name]: 1204091U1
Wave   ;Sample   ;Dark     ;Reference;Reflectance
[nm]   ;[counts] ;[counts] ;[counts] ;[%]

1014,48;13400,000; 2159,000; 6686,000;248,31014
1019,01;14268,000; 2263,000; 7134,000;246,45863
1023,54;15080,000; 2460,000; 7582,000;246,38813
1028,07;15600,000; 2357,000; 7740,000;246,01523
1032,59;16174,000; 2222,000; 7947,000;243,70306
1037,10;17168,000; 2251,000; 8409,000;242,23774
1041,62;17922,000; 2335,000; 8775,000;242,03416
1046,12;19054,000; 2824,000; 9555,000;241,12316
1050,62;19026,000; 2300,000; 9240,000;241,00865
1055,12;19525,000; 2181,000; 9387,000;240,68832
1059,62;19720,000; 2009,000; 9358,000;240,99878
1064,10;20775,000; 2401,000;10031,000;240,81258
1068,59;21409,000; 2570,000;10411,000;240,26272
1073,07;21973,000; 2356,000;10516,000;240,40441
1077,54;22336,000; 2278,000;10631,000;240,12929
1082,01;23046,000; 2486,000;11025,000;240,77761
1086,48;23637,000; 2488,000;11325,000;239,32330
1090,94;23436,000; 2081,000;10975,000;240,10569
1095,39;25104,000; 3026,000;12290,000;238,32038
1099,85;25020,000; 2345,000;11921,000;236,78989
1104,29;25443,000; 2403,000;12226,000;234,55156
1108,73;25366,000; 2060,000;12064,000;232,96681
1113,17;25974,000; 2768,000;12897,000;229,10455
1117,61;25418,000; 2351,000;12709,000;222,69743
1122,03;25214,000; 2714,000;13178,000;215,02294
1126,46;23815,000; 2237,000;12873,000;202,87702
1130,88;22193,000; 2154,000;12946,000;185,68384
1135,29;20847,000; 2780,000;13624,000;166,60826
1139,70;18817,000; 2109,000;13204,000;150,59036
1144,11;18579,000; 2181,000;13375,000;146,48919
1148,51;19789,000; 2244,000;13522,000;155,56836
1152,90;22020,000; 2301,000;13707,000;172,88269
1157,29;24057,000; 2006,000;13470,000;192,34997
1161,68;25990,000; 2262,000;13824,000;205,22401
1166,06;26723,000; 2248,000;13803,000;211,81307
1170,44;27162,000; 2494,000;13961,000;215,12165
1174,81;26448,000; 2196,000;13387,000;216,70986
1179,18;26572,000; 2339,000;13505,000;217,02490
1183,54;26211,000; 2531,000;13570,000;214,51218
1187,90;25715,000; 2580,000;13523,000;211,41369
1192,25;24825,000; 2379,000;13172,000;207,96813
1196,60;24050,000; 2222,000;12903,000;204,36289
1200,94;23688,000; 2485,000;12994,000;201,76040
1205,28;22909,000; 2285,000;12529,000;201,32761
1209,62;23089,000; 2418,000;12639,000;202,24049
1213,95;23390,000; 2543,000;12596,000;207,37093
1218,27;23379,000; 2113,000;12057,000;213,85760
1222,59;24002,000; 2762,000;12319,000;222,24547
1226,91;24116,000; 2482,000;12036,000;226,43919
1231,22;23990,000; 2269,000;11621,000;232,26048
1235,52;23625,000; 1935,000;11126,000;235,99173
1239,82;23893,000; 2360,000;11354,000;239,41517
1244,12;23461,000; 2191,000;10953,000;242,75280
1248,41;23722,000; 2519,000;11152,000;245,60408
1252,70;22725,000; 1808,000;10246,000;247,89050
1256,98;23004,000; 2069,000;10481,000;248,87066
1261,26;23504,000; 2578,000;10887,000;251,84739
1265,53;22528,000; 1911,000;10040,000;253,62283
1269,80;22769,000; 2085,000;10196,000;255,01171
1274,06;22892,000; 2472,000;10429,000;256,62938
1278,32;22542,000; 2246,000;10116,000;257,89072
1282,57;22580,000; 2315,000;10115,000;259,80769
1286,82;22154,000; 2159,000; 9878,000;259,03614
1291,06;22242,000; 2434,000; 9974,000;262,70557
1295,30;22096,000; 2354,000; 9886,000;262,10834
1299,53;22319,000; 2461,000;10030,000;262,35962
1303,76;22124,000; 2315,000; 9771,000;265,67865
1307,99;22417,000; 2633,000;10041,000;267,06263
1312,20;22077,000; 2539,000; 9875,000;266,33043
1316,42;21348,000; 2175,000; 9339,000;267,62982
1320,63;21113,000; 2246,000; 9303,000;267,35157
1324,83;20438,000; 1875,000; 8811,000;267,63264
1329,03;20456,000; 2294,000; 9122,000;265,99297
1333,23;19958,000; 2137,000; 8853,000;265,35140
1337,42;20096,000; 2453,000; 9095,000;265,62782
1341,60;19304,000; 2063,000; 8573,000;264,83871
1345,78;19323,000; 2407,000; 8779,000;265,47395
1349,96;18738,000; 1977,000; 8295,000;265,28965
1354,13;18681,000; 2218,000; 8428,000;265,10467
1358,29;18346,000; 2040,000; 8181,000;265,52679
1362,46;18150,000; 2455,000; 8370,000;265,34235
1366,61;17647,000; 2409,000; 8197,000;263,26883
1370,76;16865,000; 2106,000; 7751,000;261,45261
1374,91;16626,000; 2653,000; 8072,000;257,85200
1379,05;15409,000; 2056,000; 7236,000;257,77992
1383,18;15987,000; 2983,000; 8057,000;256,28695
1387,32;14843,000; 2042,000; 7174,000;249,43492
1391,44;14774,000; 2029,000; 7155,000;248,63441
1395,56;15577,000; 2838,000; 7994,000;247,07137
1399,68;14802,000; 1864,000; 7116,000;246,34425
1403,79;15029,000; 2045,000; 7382,000;243,28274
1407,90;14783,000; 1975,000; 7279,000;241,47813
1412,00;14851,000; 2064,000; 7433,000;238,16353
1416,10;15216,000; 2407,000; 7775,000;238,61773
1420,19;15083,000; 2106,000; 7422,000;244,11211
1424,27;15192,000; 2292,000; 7597,000;243,16682
1428,36;15321,000; 2373,000; 7627,000;246,44081
1432,43;15347,000; 2538,000; 7760,000;245,28916
1436,50;14966,000; 2221,000; 7397,000;246,23261
1440,57;15205,000; 2379,000; 7559,000;247,60618
1444,63;14794,000; 2054,000; 7190,000;248,05296
1448,69;14718,000; 1832,000; 6909,000;253,81131
1452,74;15055,000; 2149,000; 7178,000;256,63154
1456,79;14685,000; 1924,000; 6934,000;254,71058
1460,83;14848,000; 2085,000; 7017,000;258,77940
1464,87;15011,000; 2389,000; 7273,000;258,43571
1468,90;15113,000; 2366,000; 7250,000;260,99509
1472,93;14757,000; 2274,000; 7073,000;260,11669
1476,95;14858,000; 2304,000; 7073,000;263,24177
1480,96;14492,000; 2026,000; 6740,000;264,44633
1484,98;14745,000; 2214,000; 6916,000;266,50362
1488,98;14554,000; 2321,000; 6981,000;262,51073
1492,98;14548,000; 2415,000; 6974,000;266,13292
1496,98;14161,000; 2066,000; 6594,000;267,11572
1500,97;14450,000; 2503,000; 6934,000;269,62311
1504,96;13906,000; 1869,000; 6310,000;271,04256
1508,94;14427,000; 2442,000; 6874,000;270,41968
1512,92;13976,000; 2047,000; 6459,000;270,37625
1516,89;14158,000; 2181,000; 6559,000;273,57241
1520,85;14103,000; 2039,000; 6397,000;276,82423
1524,81;14625,000; 2622,000; 6923,000;279,07463
1528,77;13927,000; 1993,000; 6335,000;274,85030
1532,72;14074,000; 2083,000; 6385,000;278,73082
1536,67;14359,000; 2574,000; 6827,000;277,09852
1540,61;13509,000; 2053,000; 6158,000;279,07430
1544,54;13936,000; 2397,000; 6559,000;277,24652
1548,47;13341,000; 1870,000; 5963,000;280,25898
1552,40;13431,000; 2311,000; 6340,000;275,99901
1556,32;13531,000; 2289,000; 6299,000;280,34913
1560,23;13154,000; 2216,000; 6063,000;284,32545
1564,15;13298,000; 2266,000; 6123,000;286,02541
1568,05;12926,000; 2111,000; 5937,000;282,67120
1571,95;13083,000; 2431,000; 6174,000;284,58456
1575,84;12779,000; 2066,000; 5767,000;289,46231
1579,73;12703,000; 2334,000; 5973,000;284,94092
1583,62;12347,000; 2251,000; 5853,000;280,28873
1587,50;11843,000; 1973,000; 5552,000;275,77536
1591,37;12221,000; 2501,000; 6051,000;273,80282
1595,24;11685,000; 2195,000; 5695,000;271,14286
1599,11;11265,000; 1935,000; 5426,000;267,25867
1602,96;11163,000; 2027,000; 5422,000;269,10162
1606,82;10791,000; 1926,000; 5276,000;264,62687
1610,67;10742,000; 2202,000; 5507,000;258,39637
1614,51;10602,000; 2375,000; 5635,000;252,36196
1618,35; 9506,000; 1955,000; 5143,000;236,85696
1622,18; 9129,000; 2163,000; 5307,000;221,56489
1626,01; 8445,000; 2191,000; 5286,000;202,06785
1629,83; 7969,000; 2237,000; 5309,000;186,58854
1633,65; 7817,000; 2363,000; 5411,000;178,93701
1637,46; 7209,000; 2065,000; 5041,000;172,84946
1641,27; 7168,000; 2043,000; 4995,000;173,61111
1645,07; 6940,000; 2025,000; 4923,000;169,59972
1648,86; 6818,000; 2022,000; 4872,000;168,28070
1652,66; 6982,000; 2009,000; 4849,000;175,10563
1656,44; 6662,000; 2080,000; 4866,000;164,46518
1660,22; 6458,000; 2279,000; 5011,000;152,96486
1664,00; 6346,000; 2386,000; 5119,000;144,89572
1667,77; 5887,000; 2147,000; 4820,000;139,91770
1671,53; 5675,000; 2096,000; 4676,000;138,72093
1675,29; 5573,000; 1956,000; 4597,000;136,95570
1679,05; 5833,000; 2235,000; 4841,000;138,06600
1682,80; 5669,000; 2121,000; 4673,000;139,02821
1686,54; 5813,000; 2345,000; 4882,000;136,69689
1690,28; 5781,000; 2330,000; 4848,000;137,05322
1694,01; 5308,000; 1942,000; 4390,000;137,50000
1697,74; 5610,000; 2079,000; 4510,000;145,24887
1701,46; 5758,000; 2282,000; 4676,000;145,19632
1705,18; 5576,000; 2006,000; 4351,000;152,23881
1708,89; 5332,000; 1911,000; 4242,000;146,76105
1712,60; 5784,000; 2253,000; 4569,000;152,46114
1716,30; 5771,000; 2295,000; 4547,000;154,35169
1720,00; 5791,000; 2337,000; 4572,000;154,54139
1723,69; 5770,000; 2261,000; 4469,000;158,92210
1727,38; 5490,000; 1905,000; 4079,000;164,90340
1731,06; 5808,000; 2204,000; 4366,000;166,69750
1734,73; 5865,000; 2153,000; 4269,000;175,42533
1738,40; 5857,000; 1998,000; 4086,000;184,81801
1742,07; 6279,000; 2398,000; 4492,000;185,33906
1745,73; 5975,000; 2036,000; 4113,000;189,64853
1749,38; 5962,000; 2316,000; 4333,000;180,76351
1753,03; 5746,000; 2360,000; 4336,000;171,35628
1756,67; 5500,000; 2169,000; 4109,000;171,70103
1760,31; 5637,000; 2287,000; 4202,000;174,93473
1763,94; 5549,000; 2226,000; 4114,000;176,00636
1767,57; 5475,000; 2202,000; 4056,000;176,53722
1771,19; 5423,000; 2090,000; 3874,000;186,82735
1774,81; 5542,000; 2248,000; 4032,000;184,64126
1778,42; 5548,000; 2269,000; 4027,000;186,51877
1782,03; 5316,000; 2095,000; 3823,000;186,40046
1785,63; 5259,000; 2035,000; 3722,000;191,10848
1789,22; 5181,000; 2111,000; 3791,000;182,73810
1792,81; 5033,000; 1992,000; 3582,000;191,25786
1796,40; 4968,000; 1886,000; 3487,000;192,50468
1799,98; 5564,000; 2449,000; 4025,000;197,65228
1803,55; 5237,000; 2183,000; 3731,000;197,28682
1807,12; 5142,000; 2061,000; 3579,000;202,96443
1810,68; 5828,000; 2694,000; 4197,000;208,51630
1814,24; 4988,000; 1955,000; 3431,000;205,48780
1817,79; 5452,000; 2464,000; 3918,000;205,50206
1821,34; 5600,000; 2605,000; 4045,000;207,98611
1824,88; 5029,000; 2018,000; 3427,000;213,69766
1828,41; 5288,000; 2289,000; 3672,000;216,84743
1831,94; 5090,000; 2125,000; 3487,000;217,69457
1835,47; 4880,000; 1906,000; 3243,000;222,43829
1838,99; 5124,000; 2296,000; 3612,000;214,89362
1842,50; 5036,000; 2133,000; 3433,000;223,30769
1846,01; 4876,000; 2020,000; 3270,000;228,48000
1849,51; 4649,000; 1814,000; 3091,000;222,00470
1853,01; 4656,000; 1929,000; 3201,000;214,38679
1856,50; 5412,000; 2700,000; 3984,000;211,21495
1859,99; 4540,000; 1862,000; 3058,000;223,91304
1863,47; 4858,000; 2216,000; 3413,000;220,71846
1866,94; 4574,000; 2005,000; 3183,000;218,08149
1870,41; 5070,000; 2432,000; 3602,000;225,47009
1873,88; 4876,000; 2210,000; 3354,000;233,04196
1877,34; 5154,000; 2493,000; 3625,000;235,07067
1880,79; 5035,000; 2396,000; 3490,000;241,22486
1884,24; 5049,000; 2396,000; 3479,000;244,96768
1887,68; 4631,000; 2020,000; 3039,000;256,23160
1891,12; 4518,000; 1891,000; 2931,000;252,59615
1894,55; 4625,000; 2022,000; 3034,000;257,21344
1897,98; 4931,000; 2272,000; 3275,000;265,10469
1901,40; 4558,000; 2030,000; 3031,000;252,54745

