4mm_PS_FCR_3
Integration time [ms]: 100,000
Averaging Nr. [scans]: 1
Smoothing Nr. [pixels]: 0
Data measured with spectrometer [name]: 1204091U1
Wave   ;Sample   ;Dark     ;Reference;Reflectance
[nm]   ;[counts] ;[counts] ;[counts] ;[%]

1014,48;13922,000; 2159,000; 6686,000;259,84095
1019,01;14816,000; 2263,000; 7134,000;257,70889
1023,54;15633,000; 2460,000; 7582,000;257,18469
1028,07;16155,000; 2357,000; 7740,000;256,32547
1032,59;16774,000; 2222,000; 7947,000;254,18341
1037,10;17809,000; 2251,000; 8409,000;252,64696
1041,62;18572,000; 2335,000; 8775,000;252,12733
1046,12;19726,000; 2824,000; 9555,000;251,10682
1050,62;19747,000; 2300,000; 9240,000;251,39769
1055,12;20251,000; 2181,000; 9387,000;250,76325
1059,62;20478,000; 2009,000; 9358,000;251,31310
1064,10;21516,000; 2401,000;10031,000;250,52425
1068,59;22215,000; 2570,000;10411,000;250,54202
1073,07;22821,000; 2356,000;10516,000;250,79657
1077,54;23207,000; 2278,000;10631,000;250,55669
1082,01;23939,000; 2486,000;11025,000;251,23551
1086,48;24556,000; 2488,000;11325,000;249,72276
1090,94;24363,000; 2081,000;10975,000;250,52845
1095,39;26038,000; 3026,000;12290,000;248,40242
1099,85;25997,000; 2345,000;11921,000;246,99248
1104,29;26409,000; 2403,000;12226,000;244,38563
1108,73;26350,000; 2060,000;12064,000;242,80288
1113,17;26971,000; 2768,000;12897,000;238,94758
1117,61;26429,000; 2351,000;12709,000;232,45800
1122,03;26250,000; 2714,000;13178,000;224,92355
1126,46;24834,000; 2237,000;12873,000;212,45769
1130,88;23209,000; 2154,000;12946,000;195,09822
1135,29;21883,000; 2780,000;13624,000;176,16193
1139,70;19820,000; 2109,000;13204,000;159,63046
1144,11;19611,000; 2181,000;13375,000;155,70842
1148,51;20841,000; 2244,000;13522,000;164,89626
1152,90;23080,000; 2301,000;13707,000;182,17605
1157,29;25163,000; 2006,000;13470,000;201,99756
1161,68;27112,000; 2262,000;13824,000;214,92821
1166,06;27783,000; 2248,000;13803,000;220,98659
1170,44;28252,000; 2494,000;13961,000;224,62719
1174,81;27544,000; 2196,000;13387,000;226,50344
1179,18;27603,000; 2339,000;13505,000;226,25828
1183,54;27222,000; 2531,000;13570,000;223,67062
1187,90;26771,000; 2580,000;13523,000;221,06369
1192,25;25818,000; 2379,000;13172,000;217,16854
1196,60;25030,000; 2222,000;12903,000;213,53806
1200,94;24685,000; 2485,000;12994,000;211,24750
1205,28;23879,000; 2285,000;12529,000;210,79656
1209,62;24041,000; 2418,000;12639,000;211,55464
1213,95;24339,000; 2543,000;12596,000;216,81090
1218,27;24379,000; 2113,000;12057,000;223,91392
1222,59;24878,000; 2762,000;12319,000;231,41153
1226,91;25011,000; 2482,000;12036,000;235,80699
1231,22;24914,000; 2269,000;11621,000;242,14072
1235,52;24477,000; 1935,000;11126,000;245,26167
1239,82;24733,000; 2360,000;11354,000;248,75473
1244,12;24321,000; 2191,000;10953,000;252,56791
1248,41;24603,000; 2519,000;11152,000;255,80910
1252,70;23535,000; 1808,000;10246,000;257,48993
1256,98;23830,000; 2069,000;10481,000;258,68997
1261,26;24396,000; 2578,000;10887,000;262,58274
1265,53;23420,000; 1911,000;10040,000;264,59589
1269,80;23575,000; 2085,000;10196,000;264,94883
1274,06;23671,000; 2472,000;10429,000;266,41950
1278,32;23401,000; 2246,000;10116,000;268,80559
1282,57;23352,000; 2315,000;10115,000;269,70513
1286,82;22914,000; 2159,000; 9878,000;268,88198
1291,06;22983,000; 2434,000; 9974,000;272,53316
1295,30;22885,000; 2354,000; 9886,000;272,58364
1299,53;23114,000; 2461,000;10030,000;272,86299
1303,76;22856,000; 2315,000; 9771,000;275,49624
1307,99;23237,000; 2633,000;10041,000;278,13175
1312,20;22907,000; 2539,000; 9875,000;277,64449
1316,42;22072,000; 2175,000; 9339,000;277,73590
1320,63;21811,000; 2246,000; 9303,000;277,24245
1324,83;21118,000; 1875,000; 8811,000;277,43656
1329,03;21156,000; 2294,000; 9122,000;276,24487
1333,23;20681,000; 2137,000; 8853,000;276,11674
1337,42;20772,000; 2453,000; 9095,000;275,80548
1341,60;19953,000; 2063,000; 8573,000;274,80799
1345,78;20021,000; 2407,000; 8779,000;276,42812
1349,96;19464,000; 1977,000; 8295,000;276,78063
1354,13;19412,000; 2218,000; 8428,000;276,87601
1358,29;19024,000; 2040,000; 8181,000;276,56733
1362,46;18870,000; 2455,000; 8370,000;277,51479
1366,61;18340,000; 2409,000; 8197,000;275,24188
1370,76;17482,000; 2106,000; 7751,000;272,38264
1374,91;17248,000; 2653,000; 8072,000;269,33013
1379,05;15962,000; 2056,000; 7236,000;268,45560
1383,18;16533,000; 2983,000; 8057,000;267,04769
1387,32;15406,000; 2042,000; 7174,000;260,40530
1391,44;15307,000; 2029,000; 7155,000;259,03238
1395,56;16028,000; 2838,000; 7994,000;255,81846
1399,68;15371,000; 1864,000; 7116,000;257,17822
1403,79;15586,000; 2045,000; 7382,000;253,71932
1407,90;15375,000; 1975,000; 7279,000;252,63952
1412,00;15417,000; 2064,000; 7433,000;248,70553
1416,10;15706,000; 2407,000; 7775,000;247,74590
1420,19;15607,000; 2106,000; 7422,000;253,96915
1424,27;15789,000; 2292,000; 7597,000;254,42036
1428,36;15845,000; 2373,000; 7627,000;256,41416
1432,43;15814,000; 2538,000; 7760,000;254,23209
1436,50;15471,000; 2221,000; 7397,000;255,98918
1440,57;15715,000; 2379,000; 7559,000;257,45174
1444,63;15318,000; 2054,000; 7190,000;258,25545
1448,69;15254,000; 1832,000; 6909,000;264,36872
1452,74;15597,000; 2149,000; 7178,000;267,40903
1456,79;15151,000; 1924,000; 6934,000;264,01198
1460,83;15313,000; 2085,000; 7017,000;268,20762
1464,87;15545,000; 2389,000; 7273,000;269,36937
1468,90;15625,000; 2366,000; 7250,000;271,47830
1472,93;15196,000; 2274,000; 7073,000;269,26443
1476,95;15325,000; 2304,000; 7073,000;273,03418
1480,96;14938,000; 2026,000; 6740,000;273,90751
1484,98;15222,000; 2214,000; 6916,000;276,64823
1488,98;15010,000; 2321,000; 6981,000;272,29614
1492,98;14994,000; 2415,000; 6974,000;275,91577
1496,98;14536,000; 2066,000; 6594,000;275,39753
1500,97;14793,000; 2503,000; 6934,000;277,36403
1504,96;14379,000; 1869,000; 6310,000;281,69331
1508,94;14875,000; 2442,000; 6874,000;280,52798
1512,92;14407,000; 2047,000; 6459,000;280,14506
1516,89;14516,000; 2181,000; 6559,000;281,74966
1520,85;14462,000; 2039,000; 6397,000;285,06196
1524,81;15025,000; 2622,000; 6923,000;288,37480
1528,77;14329,000; 1993,000; 6335,000;284,10871
1532,72;14555,000; 2083,000; 6385,000;289,91167
1536,67;14782,000; 2574,000; 6827,000;287,04444
1540,61;13869,000; 2053,000; 6158,000;287,84409
1544,54;14342,000; 2397,000; 6559,000;287,00144
1548,47;13712,000; 1870,000; 5963,000;289,32323
1552,40;13759,000; 2311,000; 6340,000;284,13999
1556,32;13937,000; 2289,000; 6299,000;290,47382
1560,23;13506,000; 2216,000; 6063,000;293,47544
1564,15;13595,000; 2266,000; 6123,000;293,72569
1568,05;13200,000; 2111,000; 5937,000;289,83272
1571,95;13373,000; 2431,000; 6174,000;292,33235
1575,84;13084,000; 2066,000; 5767,000;297,70332
1579,73;13047,000; 2334,000; 5973,000;294,39406
1583,62;12741,000; 2251,000; 5853,000;291,22710
1587,50;12168,000; 1973,000; 5552,000;284,85611
1591,37;12530,000; 2501,000; 6051,000;282,50704
1595,24;12008,000; 2195,000; 5695,000;280,37143
1599,11;11601,000; 1935,000; 5426,000;276,88341
1602,96;11472,000; 2027,000; 5422,000;278,20324
1606,82;11090,000; 1926,000; 5276,000;273,55224
1610,67;11093,000; 2202,000; 5507,000;269,01664
1614,51;10942,000; 2375,000; 5635,000;262,79141
1618,35; 9822,000; 1955,000; 5143,000;246,76913
1622,18; 9392,000; 2163,000; 5307,000;229,93003
1626,01; 8767,000; 2191,000; 5286,000;212,47173
1629,83; 8254,000; 2237,000; 5309,000;195,86589
1633,65; 8113,000; 2363,000; 5411,000;188,64829
1637,46; 7477,000; 2065,000; 5041,000;181,85484
1641,27; 7428,000; 2043,000; 4995,000;182,41870
1645,07; 7205,000; 2025,000; 4923,000;178,74396
1648,86; 7067,000; 2022,000; 4872,000;177,01754
1652,66; 7218,000; 2009,000; 4849,000;183,41549
1656,44; 6884,000; 2080,000; 4866,000;172,43360
1660,22; 6680,000; 2279,000; 5011,000;161,09078
1664,00; 6576,000; 2386,000; 5119,000;153,31138
1667,77; 6139,000; 2147,000; 4820,000;149,34530
1671,53; 5895,000; 2096,000; 4676,000;147,24806
1675,29; 5854,000; 1956,000; 4597,000;147,59561
1679,05; 6078,000; 2235,000; 4841,000;147,46738
1682,80; 5874,000; 2121,000; 4673,000;147,06113
1686,54; 6041,000; 2345,000; 4882,000;145,68388
1690,28; 6029,000; 2330,000; 4848,000;146,90230
1694,01; 5559,000; 1942,000; 4390,000;147,75327
1697,74; 5849,000; 2079,000; 4510,000;155,08021
1701,46; 5963,000; 2282,000; 4676,000;153,75940
1705,18; 5754,000; 2006,000; 4351,000;159,82942
1708,89; 5530,000; 1911,000; 4242,000;155,25526
1712,60; 5991,000; 2253,000; 4569,000;161,39896
1716,30; 5986,000; 2295,000; 4547,000;163,89876
1720,00; 5965,000; 2337,000; 4572,000;162,32662
1723,69; 5993,000; 2261,000; 4469,000;169,02174
1727,38; 5751,000; 1905,000; 4079,000;176,90892
1731,06; 6033,000; 2204,000; 4366,000;177,10453
1734,73; 5993,000; 2153,000; 4269,000;181,47448
1738,40; 6014,000; 1998,000; 4086,000;192,33716
1742,07; 6432,000; 2398,000; 4492,000;192,64565
1745,73; 6113,000; 2036,000; 4113,000;196,29273
1749,38; 6064,000; 2316,000; 4333,000;185,82053
1753,03; 5876,000; 2360,000; 4336,000;177,93522
1756,67; 5641,000; 2169,000; 4109,000;178,96907
1760,31; 5774,000; 2287,000; 4202,000;182,08877
1763,94; 5742,000; 2226,000; 4114,000;186,22881
1767,57; 5640,000; 2202,000; 4056,000;185,43689
1771,19; 5624,000; 2090,000; 3874,000;198,09417
1774,81; 5714,000; 2248,000; 4032,000;194,28251
1778,42; 5731,000; 2269,000; 4027,000;196,92833
1782,03; 5541,000; 2095,000; 3823,000;199,42130
1785,63; 5422,000; 2035,000; 3722,000;200,77060
1789,22; 5332,000; 2111,000; 3791,000;191,72619
1792,81; 5155,000; 1992,000; 3582,000;198,93082
1796,40; 5123,000; 1886,000; 3487,000;202,18613
1799,98; 5672,000; 2449,000; 4025,000;204,50508
1803,55; 5365,000; 2183,000; 3731,000;205,55556
1807,12; 5278,000; 2061,000; 3579,000;211,92358
1810,68; 5951,000; 2694,000; 4197,000;216,69993
1814,24; 5107,000; 1955,000; 3431,000;213,55014
1817,79; 5586,000; 2464,000; 3918,000;214,71802
1821,34; 5746,000; 2605,000; 4045,000;218,12500
1824,88; 5151,000; 2018,000; 3427,000;222,35628
1828,41; 5437,000; 2289,000; 3672,000;227,62111
1831,94; 5227,000; 2125,000; 3487,000;227,75330
1835,47; 4971,000; 1906,000; 3243,000;229,24458
1838,99; 5277,000; 2296,000; 3612,000;226,51976
1842,50; 5149,000; 2133,000; 3433,000;232,00000
1846,01; 4978,000; 2020,000; 3270,000;236,64000
1849,51; 4777,000; 1814,000; 3091,000;232,02819
1853,01; 4779,000; 1929,000; 3201,000;224,05660
1856,50; 5568,000; 2700,000; 3984,000;223,36449
1859,99; 4714,000; 1862,000; 3058,000;238,46154
1863,47; 4999,000; 2216,000; 3413,000;232,49791
1866,94; 4720,000; 2005,000; 3183,000;230,47538
1870,41; 5193,000; 2432,000; 3602,000;235,98291
1873,88; 5006,000; 2210,000; 3354,000;244,40559
1877,34; 5247,000; 2493,000; 3625,000;243,28622
1880,79; 5149,000; 2396,000; 3490,000;251,64534
1884,24; 5146,000; 2396,000; 3479,000;253,92428
1887,68; 4748,000; 2020,000; 3039,000;267,71344
1891,12; 4605,000; 1891,000; 2931,000;260,96154
1894,55; 4695,000; 2022,000; 3034,000;264,13043
1897,98; 5010,000; 2272,000; 3275,000;272,98106
1901,40; 4655,000; 2030,000; 3031,000;262,23776

