B_ASA_FCR_1
Integration time [ms]: 100,000
Averaging Nr. [scans]: 1
Smoothing Nr. [pixels]: 0
Data measured with spectrometer [name]: 1204091U1
Wave   ;Sample   ;Dark     ;Reference;Reflectance
[nm]   ;[counts] ;[counts] ;[counts] ;[%]

1014,48; 7178,000; 2159,000; 6686,000;110,86812
1019,01; 7624,000; 2263,000; 7134,000;110,05954
1023,54; 8082,000; 2460,000; 7582,000;109,76181
1028,07; 8223,000; 2357,000; 7740,000;108,97269
1032,59; 8425,000; 2222,000; 7947,000;108,34934
1037,10; 8843,000; 2251,000; 8409,000;107,04774
1041,62; 9172,000; 2335,000; 8775,000;106,16460
1046,12; 9961,000; 2824,000; 9555,000;106,03179
1050,62; 9623,000; 2300,000; 9240,000;105,51873
1055,12; 9746,000; 2181,000; 9387,000;104,98196
1059,62; 9717,000; 2009,000; 9358,000;104,88502
1064,10;10364,000; 2401,000;10031,000;104,36435
1068,59;10732,000; 2570,000;10411,000;104,09387
1073,07;10837,000; 2356,000;10516,000;103,93382
1077,54;10929,000; 2278,000;10631,000;103,56758
1082,01;11338,000; 2486,000;11025,000;103,66553
1086,48;11602,000; 2488,000;11325,000;103,13455
1090,94;11252,000; 2081,000;10975,000;103,11446
1095,39;12562,000; 3026,000;12290,000;102,93610
1099,85;12142,000; 2345,000;11921,000;102,30785
1104,29;12393,000; 2403,000;12226,000;101,70009
1108,73;12173,000; 2060,000;12064,000;101,08956
1113,17;12888,000; 2768,000;12897,000;99,91115
1117,61;12553,000; 2351,000;12709,000;98,49392
1122,03;12851,000; 2714,000;13178,000;96,87500
1126,46;12322,000; 2237,000;12873,000;94,81948
1130,88;12110,000; 2154,000;12946,000;92,25352
1135,29;12570,000; 2780,000;13624,000;90,28034
1139,70;11892,000; 2109,000;13204,000;88,17485
1144,11;12011,000; 2181,000;13375,000;87,81490
1148,51;12283,000; 2244,000;13522,000;89,01401
1152,90;12621,000; 2301,000;13707,000;90,47870
1157,29;12579,000; 2006,000;13470,000;92,22784
1161,68;13020,000; 2262,000;13824,000;93,04619
1166,06;13033,000; 2248,000;13803,000;93,33622
1170,44;13139,000; 2494,000;13961,000;92,83160
1174,81;12526,000; 2196,000;13387,000;92,30632
1179,18;12545,000; 2339,000;13505,000;91,40247
1183,54;12512,000; 2531,000;13570,000;90,41580
1187,90;12382,000; 2580,000;13523,000;89,57324
1192,25;12043,000; 2379,000;13172,000;89,53952
1196,60;11791,000; 2222,000;12903,000;89,58899
1200,94;11970,000; 2485,000;12994,000;90,25597
1205,28;11672,000; 2285,000;12529,000;91,63413
1209,62;11909,000; 2418,000;12639,000;92,85784
1213,95;12055,000; 2543,000;12596,000;94,61852
1218,27;11661,000; 2113,000;12057,000;96,01770
1222,59;12109,000; 2762,000;12319,000;97,80266
1226,91;11932,000; 2482,000;12036,000;98,91145
1231,22;11614,000; 2269,000;11621,000;99,92515
1235,52;11197,000; 1935,000;11126,000;100,77249
1239,82;11498,000; 2360,000;11354,000;101,60107
1244,12;11142,000; 2191,000;10953,000;102,15704
1248,41;11390,000; 2519,000;11152,000;102,75686
1252,70;10539,000; 1808,000;10246,000;103,47239
1256,98;10784,000; 2069,000;10481,000;103,60200
1261,26;11235,000; 2578,000;10887,000;104,18823
1265,53;10427,000; 1911,000;10040,000;104,76073
1269,80;10617,000; 2085,000;10196,000;105,19048
1274,06;10831,000; 2472,000;10429,000;105,05216
1278,32;10564,000; 2246,000;10116,000;105,69250
1282,57;10603,000; 2315,000;10115,000;106,25641
1286,82;10377,000; 2159,000; 9878,000;106,46457
1291,06;10504,000; 2434,000; 9974,000;107,02918
1295,30;10411,000; 2354,000; 9886,000;106,97026
1299,53;10580,000; 2461,000;10030,000;107,26648
1303,76;10369,000; 2315,000; 9771,000;108,02039
1307,99;10650,000; 2633,000;10041,000;108,22084
1312,20;10506,000; 2539,000; 9875,000;108,60142
1316,42; 9987,000; 2175,000; 9339,000;109,04523
1320,63; 9928,000; 2246,000; 9303,000;108,85645
1324,83; 9444,000; 1875,000; 8811,000;109,12630
1329,03; 9723,000; 2294,000; 9122,000;108,80199
1333,23; 9413,000; 2137,000; 8853,000;108,33830
1337,42; 9643,000; 2453,000; 9095,000;108,25053
1341,60; 9080,000; 2063,000; 8573,000;107,78802
1345,78; 9262,000; 2407,000; 8779,000;107,58004
1349,96; 8725,000; 1977,000; 8295,000;106,80595
1354,13; 8810,000; 2218,000; 8428,000;106,15137
1358,29; 8539,000; 2040,000; 8181,000;105,82967
1362,46; 8702,000; 2455,000; 8370,000;105,61285
1366,61; 8499,000; 2409,000; 8197,000;105,21769
1370,76; 8032,000; 2106,000; 7751,000;104,97786
1374,91; 8309,000; 2653,000; 8072,000;104,37350
1379,05; 7465,000; 2056,000; 7236,000;104,42085
1383,18; 8295,000; 2983,000; 8057,000;104,69058
1387,32; 7363,000; 2042,000; 7174,000;103,68277
1391,44; 7326,000; 2029,000; 7155,000;103,33593
1395,56; 8154,000; 2838,000; 7994,000;103,10318
1399,68; 7266,000; 1864,000; 7116,000;102,85605
1403,79; 7493,000; 2045,000; 7382,000;102,07982
1407,90; 7413,000; 1975,000; 7279,000;102,52640
1412,00; 7545,000; 2064,000; 7433,000;102,08605
1416,10; 7945,000; 2407,000; 7775,000;103,16692
1420,19; 7623,000; 2106,000; 7422,000;103,78104
1424,27; 7822,000; 2292,000; 7597,000;104,24128
1428,36; 7844,000; 2373,000; 7627,000;104,13019
1432,43; 7996,000; 2538,000; 7760,000;104,51934
1436,50; 7636,000; 2221,000; 7397,000;104,61747
1440,57; 7813,000; 2379,000; 7559,000;104,90347
1444,63; 7453,000; 2054,000; 7190,000;105,12072
1448,69; 7174,000; 1832,000; 6909,000;105,21962
1452,74; 7496,000; 2149,000; 7178,000;106,32332
1456,79; 7262,000; 1924,000; 6934,000;106,54691
1460,83; 7384,000; 2085,000; 7017,000;107,44120
1464,87; 7624,000; 2389,000; 7273,000;107,18673
1468,90; 7605,000; 2366,000; 7250,000;107,26863
1472,93; 7504,000; 2274,000; 7073,000;108,98104
1476,95; 7517,000; 2304,000; 7073,000;109,31013
1480,96; 7180,000; 2026,000; 6740,000;109,33390
1484,98; 7378,000; 2214,000; 6916,000;109,82561
1488,98; 7422,000; 2321,000; 6981,000;109,46352
1492,98; 7444,000; 2415,000; 6974,000;110,30928
1496,98; 7060,000; 2066,000; 6594,000;110,29152
1500,97; 7444,000; 2503,000; 6934,000;111,50982
1504,96; 6787,000; 1869,000; 6310,000;110,74082
1508,94; 7365,000; 2442,000; 6874,000;111,07852
1512,92; 6944,000; 2047,000; 6459,000;110,99275
1516,89; 7034,000; 2181,000; 6559,000;110,84970
1520,85; 6884,000; 2039,000; 6397,000;111,17485
1524,81; 7409,000; 2622,000; 6923,000;111,29970
1528,77; 6802,000; 1993,000; 6335,000;110,75541
1532,72; 6854,000; 2083,000; 6385,000;110,90191
1536,67; 7273,000; 2574,000; 6827,000;110,48672
1540,61; 6618,000; 2053,000; 6158,000;111,20585
1544,54; 7016,000; 2397,000; 6559,000;110,98030
1548,47; 6433,000; 1870,000; 5963,000;111,48302
1552,40; 6831,000; 2311,000; 6340,000;112,18665
1556,32; 6796,000; 2289,000; 6299,000;112,39401
1560,23; 6571,000; 2216,000; 6063,000;113,20509
1564,15; 6626,000; 2266,000; 6123,000;113,04122
1568,05; 6450,000; 2111,000; 5937,000;113,40826
1571,95; 6709,000; 2431,000; 6174,000;114,29335
1575,84; 6304,000; 2066,000; 5767,000;114,50959
1579,73; 6491,000; 2334,000; 5973,000;114,23468
1583,62; 6373,000; 2251,000; 5853,000;114,43642
1587,50; 6037,000; 1973,000; 5552,000;113,55127
1591,37; 6536,000; 2501,000; 6051,000;113,66197
1595,24; 6162,000; 2195,000; 5695,000;113,34286
1599,11; 5819,000; 1935,000; 5426,000;111,25752
1602,96; 5822,000; 2027,000; 5422,000;111,78203
1606,82; 5654,000; 1926,000; 5276,000;111,28358
1610,67; 5830,000; 2202,000; 5507,000;109,77307
1614,51; 5947,000; 2375,000; 5635,000;109,57055
1618,35; 5417,000; 1955,000; 5143,000;108,59473
1622,18; 5547,000; 2163,000; 5307,000;107,63359
1626,01; 5499,000; 2191,000; 5286,000;106,88207
1629,83; 5449,000; 2237,000; 5309,000;104,55729
1633,65; 5511,000; 2363,000; 5411,000;103,28084
1637,46; 5170,000; 2065,000; 5041,000;104,33468
1641,27; 5067,000; 2043,000; 4995,000;102,43902
1645,07; 5001,000; 2025,000; 4923,000;102,69151
1648,86; 4942,000; 2022,000; 4872,000;102,45614
1652,66; 4869,000; 2009,000; 4849,000;100,70423
1656,44; 4845,000; 2080,000; 4866,000;99,24623
1660,22; 4929,000; 2279,000; 5011,000;96,99854
1664,00; 4950,000; 2386,000; 5119,000;93,81632
1667,77; 4591,000; 2147,000; 4820,000;91,43285
1671,53; 4470,000; 2096,000; 4676,000;92,01550
1675,29; 4332,000; 1956,000; 4597,000;89,96592
1679,05; 4588,000; 2235,000; 4841,000;90,29163
1682,80; 4429,000; 2121,000; 4673,000;90,43887
1686,54; 4693,000; 2345,000; 4882,000;92,55026
1690,28; 4643,000; 2330,000; 4848,000;91,85862
1694,01; 4222,000; 1942,000; 4390,000;93,13725
1697,74; 4338,000; 2079,000; 4510,000;92,92472
1701,46; 4540,000; 2282,000; 4676,000;94,31913
1705,18; 4234,000; 2006,000; 4351,000;95,01066
1708,89; 4151,000; 1911,000; 4242,000;96,09610
1712,60; 4495,000; 2253,000; 4569,000;96,80484
1716,30; 4535,000; 2295,000; 4547,000;99,46714
1720,00; 4554,000; 2337,000; 4572,000;99,19463
1723,69; 4461,000; 2261,000; 4469,000;99,63768
1727,38; 4101,000; 1905,000; 4079,000;101,01196
1731,06; 4383,000; 2204,000; 4366,000;100,78631
1734,73; 4341,000; 2153,000; 4269,000;103,40265
1738,40; 4163,000; 1998,000; 4086,000;103,68774
1742,07; 4532,000; 2398,000; 4492,000;101,91022
1745,73; 4184,000; 2036,000; 4113,000;103,41839
1749,38; 4401,000; 2316,000; 4333,000;103,37134
1753,03; 4412,000; 2360,000; 4336,000;103,84615
1756,67; 4185,000; 2169,000; 4109,000;103,91753
1760,31; 4308,000; 2287,000; 4202,000;105,53525
1763,94; 4216,000; 2226,000; 4114,000;105,40254
1767,57; 4190,000; 2202,000; 4056,000;107,22762
1771,19; 4048,000; 2090,000; 3874,000;109,75336
1774,81; 4188,000; 2248,000; 4032,000;108,74439
1778,42; 4196,000; 2269,000; 4027,000;109,61320
1782,03; 3992,000; 2095,000; 3823,000;109,78009
1785,63; 3907,000; 2035,000; 3722,000;110,96621
1789,22; 3958,000; 2111,000; 3791,000;109,94048
1792,81; 3772,000; 1992,000; 3582,000;111,94969
1796,40; 3706,000; 1886,000; 3487,000;113,67895
1799,98; 4270,000; 2449,000; 4025,000;115,54569
1803,55; 3993,000; 2183,000; 3731,000;116,92506
1807,12; 3833,000; 2061,000; 3579,000;116,73254
1810,68; 4462,000; 2694,000; 4197,000;117,63140
1814,24; 3707,000; 1955,000; 3431,000;118,69919
1817,79; 4217,000; 2464,000; 3918,000;120,56396
1821,34; 4344,000; 2605,000; 4045,000;120,76389
1824,88; 3734,000; 2018,000; 3427,000;121,78850
1828,41; 3969,000; 2289,000; 3672,000;121,47505
1831,94; 3807,000; 2125,000; 3487,000;123,49486
1835,47; 3582,000; 1906,000; 3243,000;125,35527
1838,99; 3930,000; 2296,000; 3612,000;124,16413
1842,50; 3747,000; 2133,000; 3433,000;124,15385
1846,01; 3608,000; 2020,000; 3270,000;127,04000
1849,51; 3415,000; 1814,000; 3091,000;125,37197
1853,01; 3499,000; 1929,000; 3201,000;123,42767
1856,50; 4317,000; 2700,000; 3984,000;125,93458
1859,99; 3399,000; 1862,000; 3058,000;128,51171
1863,47; 3752,000; 2216,000; 3413,000;128,32080
1866,94; 3509,000; 2005,000; 3183,000;127,67402
1870,41; 3891,000; 2432,000; 3602,000;124,70085
1873,88; 3698,000; 2210,000; 3354,000;130,06993
1877,34; 3991,000; 2493,000; 3625,000;132,33216
1880,79; 3862,000; 2396,000; 3490,000;134,00366
1884,24; 3840,000; 2396,000; 3479,000;133,33333
1887,68; 3443,000; 2020,000; 3039,000;139,64671
1891,12; 3285,000; 1891,000; 2931,000;134,03846
1894,55; 3415,000; 2022,000; 3034,000;137,64822
1897,98; 3661,000; 2272,000; 3275,000;138,48455
1901,40; 3422,000; 2030,000; 3031,000;139,06094

