B_PCCF_FCR_1
Integration time [ms]: 100,000
Averaging Nr. [scans]: 1
Smoothing Nr. [pixels]: 0
Data measured with spectrometer [name]: 1204091U1
Wave   ;Sample   ;Dark     ;Reference;Reflectance
[nm]   ;[counts] ;[counts] ;[counts] ;[%]

1014,48; 4129,000; 2159,000; 6686,000;43,51668
1019,01; 4328,000; 2263,000; 7134,000;42,39376
1023,54; 4620,000; 2460,000; 7582,000;42,17103
1028,07; 4587,000; 2357,000; 7740,000;41,42671
1032,59; 4576,000; 2222,000; 7947,000;41,11790
1037,10; 4714,000; 2251,000; 8409,000;39,99675
1041,62; 4908,000; 2335,000; 8775,000;39,95342
1046,12; 5468,000; 2824,000; 9555,000;39,28094
1050,62; 5005,000; 2300,000; 9240,000;38,97695
1055,12; 4962,000; 2181,000; 9387,000;38,59284
1059,62; 4851,000; 2009,000; 9358,000;38,67193
1064,10; 5334,000; 2401,000;10031,000;38,44037
1068,59; 5592,000; 2570,000;10411,000;38,54100
1073,07; 5466,000; 2356,000;10516,000;38,11275
1077,54; 5445,000; 2278,000;10631,000;37,91452
1082,01; 5723,000; 2486,000;11025,000;37,90842
1086,48; 5807,000; 2488,000;11325,000;37,55799
1090,94; 5422,000; 2081,000;10975,000;37,56465
1095,39; 6515,000; 3026,000;12290,000;37,66192
1099,85; 5900,000; 2345,000;11921,000;37,12406
1104,29; 6079,000; 2403,000;12226,000;37,42238
1108,73; 5775,000; 2060,000;12064,000;37,13515
1113,17; 6539,000; 2768,000;12897,000;37,22974
1117,61; 6197,000; 2351,000;12709,000;37,13072
1122,03; 6634,000; 2714,000;13178,000;37,46177
1126,46; 6193,000; 2237,000;12873,000;37,19443
1130,88; 6179,000; 2154,000;12946,000;37,29615
1135,29; 6821,000; 2780,000;13624,000;37,26485
1139,70; 6208,000; 2109,000;13204,000;36,94457
1144,11; 6323,000; 2181,000;13375,000;37,00197
1148,51; 6420,000; 2244,000;13522,000;37,02784
1152,90; 6501,000; 2301,000;13707,000;36,82272
1157,29; 6240,000; 2006,000;13470,000;36,93301
1161,68; 6536,000; 2262,000;13824,000;36,96592
1166,06; 6517,000; 2248,000;13803,000;36,94505
1170,44; 6750,000; 2494,000;13961,000;37,11520
1174,81; 6372,000; 2196,000;13387,000;37,31570
1179,18; 6504,000; 2339,000;13505,000;37,30073
1183,54; 6650,000; 2531,000;13570,000;37,31316
1187,90; 6684,000; 2580,000;13523,000;37,50343
1192,25; 6447,000; 2379,000;13172,000;37,69110
1196,60; 6252,000; 2222,000;12903,000;37,73055
1200,94; 6442,000; 2485,000;12994,000;37,65344
1205,28; 6179,000; 2285,000;12529,000;38,01250
1209,62; 6300,000; 2418,000;12639,000;37,98063
1213,95; 6397,000; 2543,000;12596,000;38,33681
1218,27; 5942,000; 2113,000;12057,000;38,50563
1222,59; 6461,000; 2762,000;12319,000;38,70461
1226,91; 6201,000; 2482,000;12036,000;38,92610
1231,22; 5892,000; 2269,000;11621,000;38,74038
1235,52; 5530,000; 1935,000;11126,000;39,11435
1239,82; 5867,000; 2360,000;11354,000;38,99266
1244,12; 5606,000; 2191,000;10953,000;38,97512
1248,41; 5878,000; 2519,000;11152,000;38,90884
1252,70; 5104,000; 1808,000;10246,000;39,06139
1256,98; 5355,000; 2069,000;10481,000;39,06324
1261,26; 5819,000; 2578,000;10887,000;39,00590
1265,53; 5093,000; 1911,000;10040,000;39,14381
1269,80; 5271,000; 2085,000;10196,000;39,27999
1274,06; 5602,000; 2472,000;10429,000;39,33643
1278,32; 5351,000; 2246,000;10116,000;39,45362
1282,57; 5415,000; 2315,000;10115,000;39,74359
1286,82; 5248,000; 2159,000; 9878,000;40,01814
1291,06; 5477,000; 2434,000; 9974,000;40,35809
1295,30; 5413,000; 2354,000; 9886,000;40,61338
1299,53; 5551,000; 2461,000;10030,000;40,82442
1303,76; 5363,000; 2315,000; 9771,000;40,87983
1307,99; 5640,000; 2633,000;10041,000;40,59125
1312,20; 5554,000; 2539,000; 9875,000;41,09869
1316,42; 5126,000; 2175,000; 9339,000;41,19207
1320,63; 5151,000; 2246,000; 9303,000;41,16480
1324,83; 4773,000; 1875,000; 8811,000;41,78201
1329,03; 5164,000; 2294,000; 9122,000;42,03281
1333,23; 4949,000; 2137,000; 8853,000;41,87016
1337,42; 5221,000; 2453,000; 9095,000;41,67419
1341,60; 4787,000; 2063,000; 8573,000;41,84332
1345,78; 5076,000; 2407,000; 8779,000;41,88638
1349,96; 4650,000; 1977,000; 8295,000;42,30769
1354,13; 4858,000; 2218,000; 8428,000;42,51208
1358,29; 4662,000; 2040,000; 8181,000;42,69663
1362,46; 4987,000; 2455,000; 8370,000;42,80642
1366,61; 4910,000; 2409,000; 8197,000;43,21009
1370,76; 4573,000; 2106,000; 7751,000;43,70239
1374,91; 5035,000; 2653,000; 8072,000;43,95645
1379,05; 4357,000; 2056,000; 7236,000;44,42085
1383,18; 5265,000; 2983,000; 8057,000;44,97438
1387,32; 4341,000; 2042,000; 7174,000;44,79735
1391,44; 4328,000; 2029,000; 7155,000;44,84979
1395,56; 5153,000; 2838,000; 7994,000;44,89915
1399,68; 4214,000; 1864,000; 7116,000;44,74486
1403,79; 4426,000; 2045,000; 7382,000;44,61308
1407,90; 4342,000; 1975,000; 7279,000;44,62670
1412,00; 4448,000; 2064,000; 7433,000;44,40305
1416,10; 4836,000; 2407,000; 7775,000;45,24963
1420,19; 4469,000; 2106,000; 7422,000;44,45071
1424,27; 4677,000; 2292,000; 7597,000;44,95759
1428,36; 4703,000; 2373,000; 7627,000;44,34716
1432,43; 4868,000; 2538,000; 7760,000;44,61892
1436,50; 4546,000; 2221,000; 7397,000;44,91886
1440,57; 4696,000; 2379,000; 7559,000;44,72973
1444,63; 4346,000; 2054,000; 7190,000;44,62617
1448,69; 4113,000; 1832,000; 6909,000;44,92811
1452,74; 4442,000; 2149,000; 7178,000;45,59555
1456,79; 4207,000; 1924,000; 6934,000;45,56886
1460,83; 4356,000; 2085,000; 7017,000;46,04623
1464,87; 4615,000; 2389,000; 7273,000;45,57740
1468,90; 4584,000; 2366,000; 7250,000;45,41360
1472,93; 4459,000; 2274,000; 7073,000;45,53032
1476,95; 4521,000; 2304,000; 7073,000;46,48773
1480,96; 4210,000; 2026,000; 6740,000;46,33008
1484,98; 4411,000; 2214,000; 6916,000;46,72480
1488,98; 4488,000; 2321,000; 6981,000;46,50215
1492,98; 4553,000; 2415,000; 6974,000;46,89625
1496,98; 4196,000; 2066,000; 6594,000;47,04064
1500,97; 4577,000; 2503,000; 6934,000;46,80659
1504,96; 3965,000; 1869,000; 6310,000;47,19658
1508,94; 4536,000; 2442,000; 6874,000;47,24729
1512,92; 4158,000; 2047,000; 6459,000;47,84678
1516,89; 4284,000; 2181,000; 6559,000;48,03563
1520,85; 4126,000; 2039,000; 6397,000;47,88894
1524,81; 4704,000; 2622,000; 6923,000;48,40735
1528,77; 4076,000; 1993,000; 6335,000;47,97328
1532,72; 4161,000; 2083,000; 6385,000;48,30311
1536,67; 4616,000; 2574,000; 6827,000;48,01317
1540,61; 4073,000; 2053,000; 6158,000;49,20828
1544,54; 4430,000; 2397,000; 6559,000;48,84671
1548,47; 3850,000; 1870,000; 5963,000;48,37527
1552,40; 4290,000; 2311,000; 6340,000;49,11889
1556,32; 4252,000; 2289,000; 6299,000;48,95262
1560,23; 4144,000; 2216,000; 6063,000;50,11697
1564,15; 4185,000; 2266,000; 6123,000;49,75369
1568,05; 4037,000; 2111,000; 5937,000;50,33978
1571,95; 4347,000; 2431,000; 6174,000;51,18889
1575,84; 3966,000; 2066,000; 5767,000;51,33748
1579,73; 4180,000; 2334,000; 5973,000;50,72822
1583,62; 4124,000; 2251,000; 5853,000;51,99889
1587,50; 3814,000; 1973,000; 5552,000;51,43895
1591,37; 4351,000; 2501,000; 6051,000;52,11268
1595,24; 4003,000; 2195,000; 5695,000;51,65714
1599,11; 3752,000; 1935,000; 5426,000;52,04812
1602,96; 3814,000; 2027,000; 5422,000;52,63623
1606,82; 3685,000; 1926,000; 5276,000;52,50746
1610,67; 3953,000; 2202,000; 5507,000;52,98033
1614,51; 4099,000; 2375,000; 5635,000;52,88344
1618,35; 3672,000; 1955,000; 5143,000;53,85822
1622,18; 3883,000; 2163,000; 5307,000;54,70738
1626,01; 3874,000; 2191,000; 5286,000;54,37803
1629,83; 3912,000; 2237,000; 5309,000;54,52474
1633,65; 4017,000; 2363,000; 5411,000;54,26509
1637,46; 3716,000; 2065,000; 5041,000;55,47715
1641,27; 3645,000; 2043,000; 4995,000;54,26829
1645,07; 3625,000; 2025,000; 4923,000;55,21049
1648,86; 3600,000; 2022,000; 4872,000;55,36842
1652,66; 3578,000; 2009,000; 4849,000;55,24648
1656,44; 3664,000; 2080,000; 4866,000;56,85571
1660,22; 3832,000; 2279,000; 5011,000;56,84480
1664,00; 3934,000; 2386,000; 5119,000;56,64105
1667,77; 3672,000; 2147,000; 4820,000;57,05200
1671,53; 3595,000; 2096,000; 4676,000;58,10078
1675,29; 3480,000; 1956,000; 4597,000;57,70541
1679,05; 3728,000; 2235,000; 4841,000;57,29087
1682,80; 3581,000; 2121,000; 4673,000;57,21003
1686,54; 3830,000; 2345,000; 4882,000;58,53370
1690,28; 3797,000; 2330,000; 4848,000;58,26052
1694,01; 3378,000; 1942,000; 4390,000;58,66013
1697,74; 3466,000; 2079,000; 4510,000;57,05471
1701,46; 3674,000; 2282,000; 4676,000;58,14536
1705,18; 3377,000; 2006,000; 4351,000;58,46482
1708,89; 3290,000; 1911,000; 4242,000;59,15916
1712,60; 3635,000; 2253,000; 4569,000;59,67185
1716,30; 3673,000; 2295,000; 4547,000;61,19005
1720,00; 3717,000; 2337,000; 4572,000;61,74497
1723,69; 3638,000; 2261,000; 4469,000;62,36413
1727,38; 3247,000; 1905,000; 4079,000;61,72953
1731,06; 3559,000; 2204,000; 4366,000;62,67345
1734,73; 3496,000; 2153,000; 4269,000;63,46881
1738,40; 3330,000; 1998,000; 4086,000;63,79310
1742,07; 3719,000; 2398,000; 4492,000;63,08500
1745,73; 3335,000; 2036,000; 4113,000;62,54213
1749,38; 3607,000; 2316,000; 4333,000;64,00595
1753,03; 3660,000; 2360,000; 4336,000;65,78947
1756,67; 3433,000; 2169,000; 4109,000;65,15464
1760,31; 3555,000; 2287,000; 4202,000;66,21410
1763,94; 3469,000; 2226,000; 4114,000;65,83686
1767,57; 3441,000; 2202,000; 4056,000;66,82848
1771,19; 3294,000; 2090,000; 3874,000;67,48879
1774,81; 3456,000; 2248,000; 4032,000;67,71300
1778,42; 3475,000; 2269,000; 4027,000;68,60068
1782,03; 3284,000; 2095,000; 3823,000;68,80787
1785,63; 3208,000; 2035,000; 3722,000;69,53171
1789,22; 3271,000; 2111,000; 3791,000;69,04762
1792,81; 3122,000; 1992,000; 3582,000;71,06918
1796,40; 3043,000; 1886,000; 3487,000;72,26733
1799,98; 3596,000; 2449,000; 4025,000;72,77919
1803,55; 3314,000; 2183,000; 3731,000;73,06202
1807,12; 3173,000; 2061,000; 3579,000;73,25428
1810,68; 3801,000; 2694,000; 4197,000;73,65269
1814,24; 3057,000; 1955,000; 3431,000;74,66125
1817,79; 3542,000; 2464,000; 3918,000;74,14030
1821,34; 3687,000; 2605,000; 4045,000;75,13889
1824,88; 3092,000; 2018,000; 3427,000;76,22427
1828,41; 3350,000; 2289,000; 3672,000;76,71728
1831,94; 3180,000; 2125,000; 3487,000;77,45962
1835,47; 2941,000; 1906,000; 3243,000;77,41212
1838,99; 3343,000; 2296,000; 3612,000;79,55927
1842,50; 3162,000; 2133,000; 3433,000;79,15385
1846,01; 3027,000; 2020,000; 3270,000;80,56000
1849,51; 2810,000; 1814,000; 3091,000;77,99530
1853,01; 2950,000; 1929,000; 3201,000;80,26730
1856,50; 3761,000; 2700,000; 3984,000;82,63240
1859,99; 2865,000; 1862,000; 3058,000;83,86288
1863,47; 3207,000; 2216,000; 3413,000;82,79031
1866,94; 2979,000; 2005,000; 3183,000;82,68251
1870,41; 3417,000; 2432,000; 3602,000;84,18803
1873,88; 3184,000; 2210,000; 3354,000;85,13986
1877,34; 3472,000; 2493,000; 3625,000;86,48410
1880,79; 3363,000; 2396,000; 3490,000;88,39122
1884,24; 3337,000; 2396,000; 3479,000;86,88827
1887,68; 2954,000; 2020,000; 3039,000;91,65849
1891,12; 2812,000; 1891,000; 2931,000;88,55769
1894,55; 2944,000; 2022,000; 3034,000;91,10672
1897,98; 3209,000; 2272,000; 3275,000;93,41974
1901,40; 2950,000; 2030,000; 3031,000;91,90809

