B_PETG_FCR_1
Integration time [ms]: 100,000
Averaging Nr. [scans]: 1
Smoothing Nr. [pixels]: 0
Data measured with spectrometer [name]: 1204091U1
Wave   ;Sample   ;Dark     ;Reference;Reflectance
[nm]   ;[counts] ;[counts] ;[counts] ;[%]

1014,48; 9465,000; 2159,000; 6686,000;161,38723
1019,01;10088,000; 2263,000; 7134,000;160,64463
1023,54;10682,000; 2460,000; 7582,000;160,52323
1028,07;10971,000; 2357,000; 7740,000;160,02229
1032,59;11343,000; 2222,000; 7947,000;159,31878
1037,10;12006,000; 2251,000; 8409,000;158,41182
1041,62;12510,000; 2335,000; 8775,000;157,99689
1046,12;13423,000; 2824,000; 9555,000;157,46546
1050,62;13225,000; 2300,000; 9240,000;157,42075
1055,12;13479,000; 2181,000; 9387,000;156,78601
1059,62;13521,000; 2009,000; 9358,000;156,64716
1064,10;14333,000; 2401,000;10031,000;156,38270
1068,59;14787,000; 2570,000;10411,000;155,80921
1073,07;15052,000; 2356,000;10516,000;155,58824
1077,54;15249,000; 2278,000;10631,000;155,28553
1082,01;15760,000; 2486,000;11025,000;155,45146
1086,48;16152,000; 2488,000;11325,000;154,62261
1090,94;15881,000; 2081,000;10975,000;155,16078
1095,39;17314,000; 3026,000;12290,000;154,23143
1099,85;17030,000; 2345,000;11921,000;153,35213
1104,29;17402,000; 2403,000;12226,000;152,69266
1108,73;17288,000; 2060,000;12064,000;152,21911
1113,17;18098,000; 2768,000;12897,000;151,34762
1117,61;17889,000; 2351,000;12709,000;150,00965
1122,03;18283,000; 2714,000;13178,000;148,78631
1126,46;17989,000; 2237,000;12873,000;148,10079
1130,88;18088,000; 2154,000;12946,000;147,64640
1135,29;18931,000; 2780,000;13624,000;148,93951
1139,70;18770,000; 2109,000;13204,000;150,16674
1144,11;19059,000; 2181,000;13375,000;150,77720
1148,51;19268,000; 2244,000;13522,000;150,94875
1152,90;19446,000; 2301,000;13707,000;150,31562
1157,29;19213,000; 2006,000;13470,000;150,09595
1161,68;19507,000; 2262,000;13824,000;149,15240
1166,06;19419,000; 2248,000;13803,000;148,60234
1170,44;19434,000; 2494,000;13961,000;147,72826
1174,81;18695,000; 2196,000;13387,000;147,43097
1179,18;18756,000; 2339,000;13505,000;147,02669
1183,54;18747,000; 2531,000;13570,000;146,89736
1187,90;18703,000; 2580,000;13523,000;147,33620
1192,25;18329,000; 2379,000;13172,000;147,78097
1196,60;18029,000; 2222,000;12903,000;147,99176
1200,94;18096,000; 2485,000;12994,000;148,54886
1205,28;17637,000; 2285,000;12529,000;149,86333
1209,62;17727,000; 2418,000;12639,000;149,77986
1213,95;17716,000; 2543,000;12596,000;150,93007
1218,27;17196,000; 2113,000;12057,000;151,67940
1222,59;17392,000; 2762,000;12319,000;153,08151
1226,91;17166,000; 2482,000;12036,000;153,69479
1231,22;16711,000; 2269,000;11621,000;154,42686
1235,52;16236,000; 1935,000;11126,000;155,59787
1239,82;16428,000; 2360,000;11354,000;156,41539
1244,12;15936,000; 2191,000;10953,000;156,87058
1248,41;16123,000; 2519,000;11152,000;157,58137
1252,70;15153,000; 1808,000;10246,000;158,15359
1256,98;15388,000; 2069,000;10481,000;158,33333
1261,26;15770,000; 2578,000;10887,000;158,76760
1265,53;14872,000; 1911,000;10040,000;159,44151
1269,80;15051,000; 2085,000;10196,000;159,85698
1274,06;15208,000; 2472,000;10429,000;160,06032
1278,32;14866,000; 2246,000;10116,000;160,35578
1282,57;14867,000; 2315,000;10115,000;160,92308
1286,82;14582,000; 2159,000; 9878,000;160,94054
1291,06;14633,000; 2434,000; 9974,000;161,79045
1295,30;14544,000; 2354,000; 9886,000;161,84280
1299,53;14755,000; 2461,000;10030,000;162,42568
1303,76;14485,000; 2315,000; 9771,000;163,22425
1307,99;14763,000; 2633,000;10041,000;163,74190
1312,20;14566,000; 2539,000; 9875,000;163,94493
1316,42;13936,000; 2175,000; 9339,000;164,16806
1320,63;13817,000; 2246,000; 9303,000;163,96486
1324,83;13244,000; 1875,000; 8811,000;163,91292
1329,03;13475,000; 2294,000; 9122,000;163,75220
1333,23;13097,000; 2137,000; 8853,000;163,19238
1337,42;13324,000; 2453,000; 9095,000;163,67058
1341,60;12688,000; 2063,000; 8573,000;163,21045
1345,78;12814,000; 2407,000; 8779,000;163,32392
1349,96;12243,000; 1977,000; 8295,000;162,48813
1354,13;12246,000; 2218,000; 8428,000;161,48148
1358,29;11954,000; 2040,000; 8181,000;161,43950
1362,46;11996,000; 2455,000; 8370,000;161,30178
1366,61;11757,000; 2409,000; 8197,000;161,50657
1370,76;11257,000; 2106,000; 7751,000;162,10806
1374,91;11391,000; 2653,000; 8072,000;161,24746
1379,05;10433,000; 2056,000; 7236,000;161,71815
1383,18;11184,000; 2983,000; 8057,000;161,62791
1387,32;10308,000; 2042,000; 7174,000;161,06781
1391,44;10214,000; 2029,000; 7155,000;159,67616
1395,56;11071,000; 2838,000; 7994,000;159,67804
1399,68;10232,000; 1864,000; 7116,000;159,32978
1403,79;10522,000; 2045,000; 7382,000;158,83455
1407,90;10390,000; 1975,000; 7279,000;158,65385
1412,00;10545,000; 2064,000; 7433,000;157,96238
1416,10;10933,000; 2407,000; 7775,000;158,83010
1420,19;10580,000; 2106,000; 7422,000;159,40557
1424,27;10751,000; 2292,000; 7597,000;159,45335
1428,36;10755,000; 2373,000; 7627,000;159,53559
1432,43;10888,000; 2538,000; 7760,000;159,90042
1436,50;10536,000; 2221,000; 7397,000;160,64529
1440,57;10676,000; 2379,000; 7559,000;160,17375
1444,63;10313,000; 2054,000; 7190,000;160,80607
1448,69;10015,000; 1832,000; 6909,000;161,17786
1452,74;10280,000; 2149,000; 7178,000;161,68224
1456,79;10024,000; 1924,000; 6934,000;161,67665
1460,83;10100,000; 2085,000; 7017,000;162,51014
1464,87;10340,000; 2389,000; 7273,000;162,79689
1468,90;10303,000; 2366,000; 7250,000;162,51024
1472,93;10118,000; 2274,000; 7073,000;163,45072
1476,95;10176,000; 2304,000; 7073,000;165,06605
1480,96; 9860,000; 2026,000; 6740,000;166,18583
1484,98;10024,000; 2214,000; 6916,000;166,09953
1488,98;10027,000; 2321,000; 6981,000;165,36481
1492,98;10067,000; 2415,000; 6974,000;167,84383
1496,98; 9622,000; 2066,000; 6594,000;166,87279
1500,97; 9938,000; 2503,000; 6934,000;167,79508
1504,96; 9312,000; 1869,000; 6310,000;167,59739
1508,94; 9921,000; 2442,000; 6874,000;168,75000
1512,92; 9469,000; 2047,000; 6459,000;168,22303
1516,89; 9581,000; 2181,000; 6559,000;169,02695
1520,85; 9419,000; 2039,000; 6397,000;169,34374
1524,81; 9892,000; 2622,000; 6923,000;169,03046
1528,77; 9332,000; 1993,000; 6335,000;169,02349
1532,72; 9334,000; 2083,000; 6385,000;168,54951
1536,67; 9708,000; 2574,000; 6827,000;167,74042
1540,61; 9015,000; 2053,000; 6158,000;169,59805
1544,54; 9394,000; 2397,000; 6559,000;168,11629
1548,47; 8780,000; 1870,000; 5963,000;168,82482
1552,40; 9115,000; 2311,000; 6340,000;168,87565
1556,32; 9056,000; 2289,000; 6299,000;168,75312
1560,23; 8801,000; 2216,000; 6063,000;171,17234
1564,15; 8847,000; 2266,000; 6123,000;170,62484
1568,05; 8652,000; 2111,000; 5937,000;170,96184
1571,95; 8833,000; 2431,000; 6174,000;171,03927
1575,84; 8412,000; 2066,000; 5767,000;171,46717
1579,73; 8592,000; 2334,000; 5973,000;171,97032
1583,62; 8441,000; 2251,000; 5853,000;171,84897
1587,50; 8110,000; 1973,000; 5552,000;171,47248
1591,37; 8540,000; 2501,000; 6051,000;170,11268
1595,24; 8136,000; 2195,000; 5695,000;169,74286
1599,11; 7860,000; 1935,000; 5426,000;169,72214
1602,96; 7838,000; 2027,000; 5422,000;171,16348
1606,82; 7605,000; 1926,000; 5276,000;169,52239
1610,67; 7734,000; 2202,000; 5507,000;167,38275
1614,51; 7798,000; 2375,000; 5635,000;166,34969
1618,35; 7278,000; 1955,000; 5143,000;166,96989
1622,18; 7351,000; 2163,000; 5307,000;165,01272
1626,01; 7268,000; 2191,000; 5286,000;164,03877
1629,83; 7163,000; 2237,000; 5309,000;160,35156
1633,65; 7123,000; 2363,000; 5411,000;156,16798
1637,46; 6679,000; 2065,000; 5041,000;155,04032
1641,27; 6445,000; 2043,000; 4995,000;149,11924
1645,07; 6222,000; 2025,000; 4923,000;144,82402
1648,86; 6039,000; 2022,000; 4872,000;140,94737
1652,66; 5919,000; 2009,000; 4849,000;137,67606
1656,44; 5863,000; 2080,000; 4866,000;135,78607
1660,22; 5960,000; 2279,000; 5011,000;134,73646
1664,00; 6131,000; 2386,000; 5119,000;137,02891
1667,77; 5939,000; 2147,000; 4820,000;141,86308
1671,53; 5901,000; 2096,000; 4676,000;147,48062
1675,29; 5907,000; 1956,000; 4597,000;149,60242
1679,05; 6130,000; 2235,000; 4841,000;149,46278
1682,80; 5981,000; 2121,000; 4673,000;151,25392
1686,54; 6189,000; 2345,000; 4882,000;151,51754
1690,28; 6198,000; 2330,000; 4848,000;153,61398
1694,01; 5721,000; 1942,000; 4390,000;154,37092
1697,74; 5811,000; 2079,000; 4510,000;153,51707
1701,46; 5928,000; 2282,000; 4676,000;152,29741
1705,18; 5562,000; 2006,000; 4351,000;151,64179
1708,89; 5421,000; 1911,000; 4242,000;150,57915
1712,60; 5722,000; 2253,000; 4569,000;149,78411
1716,30; 5667,000; 2295,000; 4547,000;149,73357
1720,00; 5700,000; 2337,000; 4572,000;150,46980
1723,69; 5565,000; 2261,000; 4469,000;149,63768
1727,38; 5190,000; 1905,000; 4079,000;151,10396
1731,06; 5511,000; 2204,000; 4366,000;152,96022
1734,73; 5421,000; 2153,000; 4269,000;154,44234
1738,40; 5290,000; 1998,000; 4086,000;157,66284
1742,07; 5716,000; 2398,000; 4492,000;158,45272
1745,73; 5351,000; 2036,000; 4113,000;159,60520
1749,38; 5563,000; 2316,000; 4333,000;160,98166
1753,03; 5546,000; 2360,000; 4336,000;161,23482
1756,67; 5355,000; 2169,000; 4109,000;164,22680
1760,31; 5426,000; 2287,000; 4202,000;163,91645
1763,94; 5363,000; 2226,000; 4114,000;166,15466
1767,57; 5293,000; 2202,000; 4056,000;166,72060
1771,19; 5107,000; 2090,000; 3874,000;169,11435
1774,81; 5223,000; 2248,000; 4032,000;166,76009
1778,42; 5249,000; 2269,000; 4027,000;169,51081
1782,03; 5013,000; 2095,000; 3823,000;168,86574
1785,63; 4900,000; 2035,000; 3722,000;169,82810
1789,22; 4941,000; 2111,000; 3791,000;168,45238
1792,81; 4729,000; 1992,000; 3582,000;172,13836
1796,40; 4602,000; 1886,000; 3487,000;169,64397
1799,98; 5134,000; 2449,000; 4025,000;170,36802
1803,55; 4864,000; 2183,000; 3731,000;173,19121
1807,12; 4702,000; 2061,000; 3579,000;173,97892
1810,68; 5296,000; 2694,000; 4197,000;173,12043
1814,24; 4567,000; 1955,000; 3431,000;176,96477
1817,79; 5051,000; 2464,000; 3918,000;177,92297
1821,34; 5144,000; 2605,000; 4045,000;176,31944
1824,88; 4545,000; 2018,000; 3427,000;179,34705
1828,41; 4778,000; 2289,000; 3672,000;179,97108
1831,94; 4601,000; 2125,000; 3487,000;181,79148
1835,47; 4355,000; 1906,000; 3243,000;183,17128
1838,99; 4734,000; 2296,000; 3612,000;185,25836
1842,50; 4530,000; 2133,000; 3433,000;184,38462
1846,01; 4377,000; 2020,000; 3270,000;188,56000
1849,51; 4166,000; 1814,000; 3091,000;184,18168
1853,01; 4259,000; 1929,000; 3201,000;183,17610
1856,50; 5055,000; 2700,000; 3984,000;183,41121
1859,99; 4125,000; 1862,000; 3058,000;189,21405
1863,47; 4444,000; 2216,000; 3413,000;186,13200
1866,94; 4171,000; 2005,000; 3183,000;183,87097
1870,41; 4575,000; 2432,000; 3602,000;183,16239
1873,88; 4325,000; 2210,000; 3354,000;184,87762
1877,34; 4600,000; 2493,000; 3625,000;186,13074
1880,79; 4430,000; 2396,000; 3490,000;185,92322
1884,24; 4415,000; 2396,000; 3479,000;186,42659
1887,68; 4001,000; 2020,000; 3039,000;194,40628
1891,12; 3868,000; 1891,000; 2931,000;190,09615
1894,55; 3946,000; 2022,000; 3034,000;190,11858
1897,98; 4191,000; 2272,000; 3275,000;191,32602
1901,40; 3925,000; 2030,000; 3031,000;189,31069

