C_PC_FCR_1
Integration time [ms]: 100,000
Averaging Nr. [scans]: 1
Smoothing Nr. [pixels]: 0
Data measured with spectrometer [name]: 1204091U1
Wave   ;Sample   ;Dark     ;Reference;Reflectance
[nm]   ;[counts] ;[counts] ;[counts] ;[%]

1014,48; 6077,000; 2159,000; 6686,000;86,54738
1019,01; 6420,000; 2263,000; 7134,000;85,34182
1023,54; 6820,000; 2460,000; 7582,000;85,12300
1028,07; 6911,000; 2357,000; 7740,000;84,59967
1032,59; 7010,000; 2222,000; 7947,000;83,63319
1037,10; 7360,000; 2251,000; 8409,000;82,96525
1041,62; 7640,000; 2335,000; 8775,000;82,37578
1046,12; 8318,000; 2824,000; 9555,000;81,62234
1050,62; 7961,000; 2300,000; 9240,000;81,57061
1055,12; 8019,000; 2181,000; 9387,000;81,01582
1059,62; 7944,000; 2009,000; 9358,000;80,75929
1064,10; 8552,000; 2401,000;10031,000;80,61599
1068,59; 8853,000; 2570,000;10411,000;80,13009
1073,07; 8878,000; 2356,000;10516,000;79,92647
1077,54; 8921,000; 2278,000;10631,000;79,52831
1082,01; 9268,000; 2486,000;11025,000;79,42382
1086,48; 9464,000; 2488,000;11325,000;78,94082
1090,94; 9084,000; 2081,000;10975,000;78,73848
1095,39;10273,000; 3026,000;12290,000;78,22755
1099,85; 9744,000; 2345,000;11921,000;77,26608
1104,29; 9926,000; 2403,000;12226,000;76,58556
1108,73; 9614,000; 2060,000;12064,000;75,50980
1113,17;10286,000; 2768,000;12897,000;74,22253
1117,61; 9856,000; 2351,000;12709,000;72,45607
1122,03;10130,000; 2714,000;13178,000;70,87156
1126,46; 9585,000; 2237,000;12873,000;69,08612
1130,88; 9493,000; 2154,000;12946,000;68,00408
1135,29;10171,000; 2780,000;13624,000;68,15751
1139,70; 9716,000; 2109,000;13204,000;68,56242
1144,11; 9971,000; 2181,000;13375,000;69,59085
1148,51;10174,000; 2244,000;13522,000;70,31389
1152,90;10356,000; 2301,000;13707,000;70,62073
1157,29;10109,000; 2006,000;13470,000;70,68214
1161,68;10402,000; 2262,000;13824,000;70,40304
1166,06;10305,000; 2248,000;13803,000;69,72739
1170,44;10397,000; 2494,000;13961,000;68,91951
1174,81; 9854,000; 2196,000;13387,000;68,42999
1179,18; 9942,000; 2339,000;13505,000;68,09063
1183,54; 9961,000; 2531,000;13570,000;67,30682
1187,90; 9958,000; 2580,000;13523,000;67,42210
1192,25; 9762,000; 2379,000;13172,000;68,40545
1196,60; 9643,000; 2222,000;12903,000;69,47851
1200,94; 9901,000; 2485,000;12994,000;70,56808
1205,28; 9624,000; 2285,000;12529,000;71,64194
1209,62; 9781,000; 2418,000;12639,000;72,03796
1213,95; 9877,000; 2543,000;12596,000;72,95335
1218,27; 9419,000; 2113,000;12057,000;73,47144
1222,59; 9852,000; 2762,000;12319,000;74,18646
1226,91; 9618,000; 2482,000;12036,000;74,69123
1231,22; 9254,000; 2269,000;11621,000;74,68991
1235,52; 8846,000; 1935,000;11126,000;75,19312
1239,82; 9137,000; 2360,000;11354,000;75,35023
1244,12; 8838,000; 2191,000;10953,000;75,86168
1248,41; 9079,000; 2519,000;11152,000;75,98749
1252,70; 8213,000; 1808,000;10246,000;75,90661
1256,98; 8471,000; 2069,000;10481,000;76,10556
1261,26; 8910,000; 2578,000;10887,000;76,20652
1265,53; 8131,000; 1911,000;10040,000;76,51618
1269,80; 8295,000; 2085,000;10196,000;76,56269
1274,06; 8588,000; 2472,000;10429,000;76,86314
1278,32; 8271,000; 2246,000;10116,000;76,55654
1282,57; 8303,000; 2315,000;10115,000;76,76923
1286,82; 8083,000; 2159,000; 9878,000;76,74569
1291,06; 8241,000; 2434,000; 9974,000;77,01592
1295,30; 8144,000; 2354,000; 9886,000;76,87201
1299,53; 8281,000; 2461,000;10030,000;76,89259
1303,76; 8085,000; 2315,000; 9771,000;77,38734
1307,99; 8359,000; 2633,000;10041,000;77,29482
1312,20; 8188,000; 2539,000; 9875,000;77,00382
1316,42; 7706,000; 2175,000; 9339,000;77,20547
1320,63; 7684,000; 2246,000; 9303,000;77,05824
1324,83; 7214,000; 1875,000; 8811,000;76,97520
1329,03; 7557,000; 2294,000; 9122,000;77,07967
1333,23; 7256,000; 2137,000; 8853,000;76,22096
1337,42; 7515,000; 2453,000; 9095,000;76,21198
1341,60; 6982,000; 2063,000; 8573,000;75,56068
1345,78; 7195,000; 2407,000; 8779,000;75,14124
1349,96; 6678,000; 1977,000; 8295,000;74,40646
1354,13; 6782,000; 2218,000; 8428,000;73,49436
1358,29; 6525,000; 2040,000; 8181,000;73,03371
1362,46; 6751,000; 2455,000; 8370,000;72,62891
1366,61; 6609,000; 2409,000; 8197,000;72,56393
1370,76; 6207,000; 2106,000; 7751,000;72,64836
1374,91; 6627,000; 2653,000; 8072,000;73,33456
1379,05; 5848,000; 2056,000; 7236,000;73,20463
1383,18; 6713,000; 2983,000; 8057,000;73,51202
1387,32; 5800,000; 2042,000; 7174,000;73,22681
1391,44; 5749,000; 2029,000; 7155,000;72,57121
1395,56; 6579,000; 2838,000; 7994,000;72,55625
1399,68; 5680,000; 1864,000; 7116,000;72,65804
1403,79; 5918,000; 2045,000; 7382,000;72,56886
1407,90; 5820,000; 1975,000; 7279,000;72,49246
1412,00; 5960,000; 2064,000; 7433,000;72,56472
1416,10; 6353,000; 2407,000; 7775,000;73,50969
1420,19; 6024,000; 2106,000; 7422,000;73,70203
1424,27; 6207,000; 2292,000; 7597,000;73,79830
1428,36; 6262,000; 2373,000; 7627,000;74,01979
1432,43; 6404,000; 2538,000; 7760,000;74,03294
1436,50; 6072,000; 2221,000; 7397,000;74,40108
1440,57; 6254,000; 2379,000; 7559,000;74,80695
1444,63; 5903,000; 2054,000; 7190,000;74,94159
1448,69; 5665,000; 1832,000; 6909,000;75,49734
1452,74; 5962,000; 2149,000; 7178,000;75,82024
1456,79; 5732,000; 1924,000; 6934,000;76,00798
1460,83; 5865,000; 2085,000; 7017,000;76,64234
1464,87; 6135,000; 2389,000; 7273,000;76,69943
1468,90; 6106,000; 2366,000; 7250,000;76,57658
1472,93; 6005,000; 2274,000; 7073,000;77,74536
1476,95; 6032,000; 2304,000; 7073,000;78,17152
1480,96; 5694,000; 2026,000; 6740,000;77,81078
1484,98; 5885,000; 2214,000; 6916,000;78,07316
1488,98; 5967,000; 2321,000; 6981,000;78,24034
1492,98; 6024,000; 2415,000; 6974,000;79,16210
1496,98; 5636,000; 2066,000; 6594,000;78,84276
1500,97; 6027,000; 2503,000; 6934,000;79,53058
1504,96; 5412,000; 1869,000; 6310,000;79,77933
1508,94; 5979,000; 2442,000; 6874,000;79,80596
1512,92; 5588,000; 2047,000; 6459,000;80,25839
1516,89; 5676,000; 2181,000; 6559,000;79,83097
1520,85; 5535,000; 2039,000; 6397,000;80,22028
1524,81; 6072,000; 2622,000; 6923,000;80,21390
1528,77; 5487,000; 1993,000; 6335,000;80,46983
1532,72; 5548,000; 2083,000; 6385,000;80,54393
1536,67; 5998,000; 2574,000; 6827,000;80,50788
1540,61; 5391,000; 2053,000; 6158,000;81,31547
1544,54; 5764,000; 2397,000; 6559,000;80,89861
1548,47; 5171,000; 1870,000; 5963,000;80,64989
1552,40; 5610,000; 2311,000; 6340,000;81,88136
1556,32; 5581,000; 2289,000; 6299,000;82,09476
1560,23; 5375,000; 2216,000; 6063,000;82,11593
1564,15; 5416,000; 2266,000; 6123,000;81,66969
1568,05; 5259,000; 2111,000; 5937,000;82,27914
1571,95; 5511,000; 2431,000; 6174,000;82,28694
1575,84; 5116,000; 2066,000; 5767,000;82,41016
1579,73; 5329,000; 2334,000; 5973,000;82,30283
1583,62; 5210,000; 2251,000; 5853,000;82,14881
1587,50; 4891,000; 1973,000; 5552,000;81,53115
1591,37; 5399,000; 2501,000; 6051,000;81,63380
1595,24; 5044,000; 2195,000; 5695,000;81,40000
1599,11; 4740,000; 1935,000; 5426,000;80,34947
1602,96; 4759,000; 2027,000; 5422,000;80,47128
1606,82; 4599,000; 1926,000; 5276,000;79,79104
1610,67; 4787,000; 2202,000; 5507,000;78,21483
1614,51; 4908,000; 2375,000; 5635,000;77,69939
1618,35; 4420,000; 1955,000; 5143,000;77,32120
1622,18; 4573,000; 2163,000; 5307,000;76,65394
1626,01; 4559,000; 2191,000; 5286,000;76,51050
1629,83; 4511,000; 2237,000; 5309,000;74,02344
1633,65; 4562,000; 2363,000; 5411,000;72,14567
1637,46; 4198,000; 2065,000; 5041,000;71,67339
1641,27; 4062,000; 2043,000; 4995,000;68,39431
1645,07; 3927,000; 2025,000; 4923,000;65,63147
1648,86; 3853,000; 2022,000; 4872,000;64,24561
1652,66; 3773,000; 2009,000; 4849,000;62,11268
1656,44; 3783,000; 2080,000; 4866,000;61,12706
1660,22; 3907,000; 2279,000; 5011,000;59,59004
1664,00; 3985,000; 2386,000; 5119,000;58,50714
1667,77; 3734,000; 2147,000; 4820,000;59,37149
1671,53; 3700,000; 2096,000; 4676,000;62,17054
1675,29; 3621,000; 1956,000; 4597,000;63,04430
1679,05; 3901,000; 2235,000; 4841,000;63,92939
1682,80; 3768,000; 2121,000; 4673,000;64,53762
1686,54; 4007,000; 2345,000; 4882,000;65,51045
1690,28; 3980,000; 2330,000; 4848,000;65,52820
1694,01; 3564,000; 1942,000; 4390,000;66,25817
1697,74; 3716,000; 2079,000; 4510,000;67,33854
1701,46; 3916,000; 2282,000; 4676,000;68,25397
1705,18; 3637,000; 2006,000; 4351,000;69,55224
1708,89; 3560,000; 1911,000; 4242,000;70,74217
1712,60; 3904,000; 2253,000; 4569,000;71,28670
1716,30; 3940,000; 2295,000; 4547,000;73,04618
1720,00; 3970,000; 2337,000; 4572,000;73,06488
1723,69; 3882,000; 2261,000; 4469,000;73,41486
1727,38; 3490,000; 1905,000; 4079,000;72,90708
1731,06; 3780,000; 2204,000; 4366,000;72,89547
1734,73; 3724,000; 2153,000; 4269,000;74,24386
1738,40; 3571,000; 1998,000; 4086,000;75,33525
1742,07; 3985,000; 2398,000; 4492,000;75,78797
1745,73; 3607,000; 2036,000; 4113,000;75,63794
1749,38; 3894,000; 2316,000; 4333,000;78,23500
1753,03; 3932,000; 2360,000; 4336,000;79,55466
1756,67; 3707,000; 2169,000; 4109,000;79,27835
1760,31; 3836,000; 2287,000; 4202,000;80,88773
1763,94; 3755,000; 2226,000; 4114,000;80,98517
1767,57; 3725,000; 2202,000; 4056,000;82,14671
1771,19; 3594,000; 2090,000; 3874,000;84,30493
1774,81; 3755,000; 2248,000; 4032,000;84,47309
1778,42; 3788,000; 2269,000; 4027,000;86,40501
1782,03; 3595,000; 2095,000; 3823,000;86,80556
1785,63; 3526,000; 2035,000; 3722,000;88,38174
1789,22; 3575,000; 2111,000; 3791,000;87,14286
1792,81; 3415,000; 1992,000; 3582,000;89,49686
1796,40; 3314,000; 1886,000; 3487,000;89,19425
1799,98; 3853,000; 2449,000; 4025,000;89,08629
1803,55; 3589,000; 2183,000; 3731,000;90,82687
1807,12; 3437,000; 2061,000; 3579,000;90,64559
1810,68; 4073,000; 2694,000; 4197,000;91,74983
1814,24; 3305,000; 1955,000; 3431,000;91,46341
1817,79; 3802,000; 2464,000; 3918,000;92,02201
1821,34; 3934,000; 2605,000; 4045,000;92,29167
1824,88; 3324,000; 2018,000; 3427,000;92,68985
1828,41; 3594,000; 2289,000; 3672,000;94,36009
1831,94; 3426,000; 2125,000; 3487,000;95,52129
1835,47; 3199,000; 1906,000; 3243,000;96,70905
1838,99; 3581,000; 2296,000; 3612,000;97,64438
1842,50; 3408,000; 2133,000; 3433,000;98,07692
1846,01; 3269,000; 2020,000; 3270,000;99,92000
1849,51; 3077,000; 1814,000; 3091,000;98,90368
1853,01; 3171,000; 1929,000; 3201,000;97,64151
1856,50; 3974,000; 2700,000; 3984,000;99,22118
1859,99; 3094,000; 1862,000; 3058,000;103,01003
1863,47; 3446,000; 2216,000; 3413,000;102,75689
1866,94; 3192,000; 2005,000; 3183,000;100,76401
1870,41; 3611,000; 2432,000; 3602,000;100,76923
1873,88; 3391,000; 2210,000; 3354,000;103,23427
1877,34; 3721,000; 2493,000; 3625,000;108,48057
1880,79; 3549,000; 2396,000; 3490,000;105,39305
1884,24; 3508,000; 2396,000; 3479,000;102,67775
1887,68; 3123,000; 2020,000; 3039,000;108,24338
1891,12; 2959,000; 1891,000; 2931,000;102,69231
1894,55; 3088,000; 2022,000; 3034,000;105,33597
1897,98; 3320,000; 2272,000; 3275,000;104,48654
1901,40; 3070,000; 2030,000; 3031,000;103,89610

