C_PCCF_FCR_1
Integration time [ms]: 100,000
Averaging Nr. [scans]: 1
Smoothing Nr. [pixels]: 0
Data measured with spectrometer [name]: 1204091U1
Wave   ;Sample   ;Dark     ;Reference;Reflectance
[nm]   ;[counts] ;[counts] ;[counts] ;[%]

1014,48; 3981,000; 2159,000; 6686,000;40,24740
1019,01; 4184,000; 2263,000; 7134,000;39,43749
1023,54; 4462,000; 2460,000; 7582,000;39,08629
1028,07; 4440,000; 2357,000; 7740,000;38,69589
1032,59; 4407,000; 2222,000; 7947,000;38,16594
1037,10; 4576,000; 2251,000; 8409,000;37,75576
1041,62; 4744,000; 2335,000; 8775,000;37,40683
1046,12; 5317,000; 2824,000; 9555,000;37,03759
1050,62; 4850,000; 2300,000; 9240,000;36,74352
1055,12; 4815,000; 2181,000; 9387,000;36,55287
1059,62; 4690,000; 2009,000; 9358,000;36,48115
1064,10; 5178,000; 2401,000;10031,000;36,39581
1068,59; 5426,000; 2570,000;10411,000;36,42393
1073,07; 5299,000; 2356,000;10516,000;36,06618
1077,54; 5267,000; 2278,000;10631,000;35,78355
1082,01; 5545,000; 2486,000;11025,000;35,82387
1086,48; 5621,000; 2488,000;11325,000;35,45321
1090,94; 5223,000; 2081,000;10975,000;35,32719
1095,39; 6279,000; 3026,000;12290,000;35,11442
1099,85; 5681,000; 2345,000;11921,000;34,83709
1104,29; 5812,000; 2403,000;12226,000;34,70427
1108,73; 5504,000; 2060,000;12064,000;34,42623
1113,17; 6275,000; 2768,000;12897,000;34,62336
1117,61; 5943,000; 2351,000;12709,000;34,67851
1122,03; 6330,000; 2714,000;13178,000;34,55657
1126,46; 5910,000; 2237,000;12873,000;34,53366
1130,88; 5872,000; 2154,000;12946,000;34,45145
1135,29; 6553,000; 2780,000;13624,000;34,79343
1139,70; 5931,000; 2109,000;13204,000;34,44795
1144,11; 6053,000; 2181,000;13375,000;34,58996
1148,51; 6145,000; 2244,000;13522,000;34,58947
1152,90; 6248,000; 2301,000;13707,000;34,60459
1157,29; 6004,000; 2006,000;13470,000;34,87439
1161,68; 6287,000; 2262,000;13824,000;34,81232
1166,06; 6266,000; 2248,000;13803,000;34,77283
1170,44; 6490,000; 2494,000;13961,000;34,84782
1174,81; 6098,000; 2196,000;13387,000;34,86730
1179,18; 6260,000; 2339,000;13505,000;35,11553
1183,54; 6381,000; 2531,000;13570,000;34,87635
1187,90; 6399,000; 2580,000;13523,000;34,89902
1192,25; 6117,000; 2379,000;13172,000;34,63356
1196,60; 5939,000; 2222,000;12903,000;34,80011
1200,94; 6156,000; 2485,000;12994,000;34,93196
1205,28; 5888,000; 2285,000;12529,000;35,17181
1209,62; 6021,000; 2418,000;12639,000;35,25095
1213,95; 6088,000; 2543,000;12596,000;35,26311
1218,27; 5625,000; 2113,000;12057,000;35,31778
1222,59; 6158,000; 2762,000;12319,000;35,53416
1226,91; 5908,000; 2482,000;12036,000;35,85933
1231,22; 5636,000; 2269,000;11621,000;36,00299
1235,52; 5258,000; 1935,000;11126,000;36,15493
1239,82; 5634,000; 2360,000;11354,000;36,40205
1244,12; 5411,000; 2191,000;10953,000;36,74960
1248,41; 5684,000; 2519,000;11152,000;36,66165
1252,70; 4918,000; 1808,000;10246,000;36,85708
1256,98; 5165,000; 2069,000;10481,000;36,80456
1261,26; 5657,000; 2578,000;10887,000;37,05620
1265,53; 4937,000; 1911,000;10040,000;37,22475
1269,80; 5142,000; 2085,000;10196,000;37,68956
1274,06; 5461,000; 2472,000;10429,000;37,56441
1278,32; 5192,000; 2246,000;10116,000;37,43329
1282,57; 5218,000; 2315,000;10115,000;37,21795
1286,82; 5030,000; 2159,000; 9878,000;37,19394
1291,06; 5265,000; 2434,000; 9974,000;37,54642
1295,30; 5156,000; 2354,000; 9886,000;37,20127
1299,53; 5322,000; 2461,000;10030,000;37,79892
1303,76; 5113,000; 2315,000; 9771,000;37,52682
1307,99; 5407,000; 2633,000;10041,000;37,44600
1312,20; 5346,000; 2539,000; 9875,000;38,26336
1316,42; 4920,000; 2175,000; 9339,000;38,31658
1320,63; 4963,000; 2246,000; 9303,000;38,50078
1324,83; 4594,000; 1875,000; 8811,000;39,20127
1329,03; 5015,000; 2294,000; 9122,000;39,85062
1333,23; 4765,000; 2137,000; 8853,000;39,13043
1337,42; 5060,000; 2453,000; 9095,000;39,25023
1341,60; 4613,000; 2063,000; 8573,000;39,17051
1345,78; 4923,000; 2407,000; 8779,000;39,48525
1349,96; 4477,000; 1977,000; 8295,000;39,56948
1354,13; 4678,000; 2218,000; 8428,000;39,61353
1358,29; 4484,000; 2040,000; 8181,000;39,79808
1362,46; 4820,000; 2455,000; 8370,000;39,98309
1366,61; 4731,000; 2409,000; 8197,000;40,11748
1370,76; 4390,000; 2106,000; 7751,000;40,46058
1374,91; 4899,000; 2653,000; 8072,000;41,44676
1379,05; 4212,000; 2056,000; 7236,000;41,62162
1383,18; 5122,000; 2983,000; 8057,000;42,15609
1387,32; 4165,000; 2042,000; 7174,000;41,36789
1391,44; 4171,000; 2029,000; 7155,000;41,78697
1395,56; 4959,000; 2838,000; 7994,000;41,13654
1399,68; 4016,000; 1864,000; 7116,000;40,97487
1403,79; 4239,000; 2045,000; 7382,000;41,10924
1407,90; 4186,000; 1975,000; 7279,000;41,68552
1412,00; 4267,000; 2064,000; 7433,000;41,03185
1416,10; 4631,000; 2407,000; 7775,000;41,43070
1420,19; 4316,000; 2106,000; 7422,000;41,57261
1424,27; 4545,000; 2292,000; 7597,000;42,46937
1428,36; 4581,000; 2373,000; 7627,000;42,02512
1432,43; 4753,000; 2538,000; 7760,000;42,41670
1436,50; 4417,000; 2221,000; 7397,000;42,42658
1440,57; 4590,000; 2379,000; 7559,000;42,68340
1444,63; 4240,000; 2054,000; 7190,000;42,56231
1448,69; 4012,000; 1832,000; 6909,000;42,93874
1452,74; 4310,000; 2149,000; 7178,000;42,97077
1456,79; 4082,000; 1924,000; 6934,000;43,07385
1460,83; 4193,000; 2085,000; 7017,000;42,74128
1464,87; 4492,000; 2389,000; 7273,000;43,05897
1468,90; 4432,000; 2366,000; 7250,000;42,30139
1472,93; 4359,000; 2274,000; 7073,000;43,44655
1476,95; 4365,000; 2304,000; 7073,000;43,21661
1480,96; 4072,000; 2026,000; 6740,000;43,40263
1484,98; 4242,000; 2214,000; 6916,000;43,13058
1488,98; 4326,000; 2321,000; 6981,000;43,02575
1492,98; 4407,000; 2415,000; 6974,000;43,69379
1496,98; 4054,000; 2066,000; 6594,000;43,90459
1500,97; 4452,000; 2503,000; 6934,000;43,98556
1504,96; 3851,000; 1869,000; 6310,000;44,62959
1508,94; 4429,000; 2442,000; 6874,000;44,83303
1512,92; 4017,000; 2047,000; 6459,000;44,65095
1516,89; 4149,000; 2181,000; 6559,000;44,95203
1520,85; 4010,000; 2039,000; 6397,000;45,22717
1524,81; 4575,000; 2622,000; 6923,000;45,40804
1528,77; 3972,000; 1993,000; 6335,000;45,57807
1532,72; 4046,000; 2083,000; 6385,000;45,62994
1536,67; 4498,000; 2574,000; 6827,000;45,23866
1540,61; 3955,000; 2053,000; 6158,000;46,33374
1544,54; 4285,000; 2397,000; 6559,000;45,36281
1548,47; 3718,000; 1870,000; 5963,000;45,15026
1552,40; 4153,000; 2311,000; 6340,000;45,71854
1556,32; 4105,000; 2289,000; 6299,000;45,28678
1560,23; 3993,000; 2216,000; 6063,000;46,19184
1564,15; 4054,000; 2266,000; 6123,000;46,35727
1568,05; 3891,000; 2111,000; 5937,000;46,52378
1571,95; 4186,000; 2431,000; 6174,000;46,88752
1575,84; 3760,000; 2066,000; 5767,000;45,77141
1579,73; 4040,000; 2334,000; 5973,000;46,88101
1583,62; 4011,000; 2251,000; 5853,000;48,86174
1587,50; 3697,000; 1973,000; 5552,000;48,16988
1591,37; 4223,000; 2501,000; 6051,000;48,50704
1595,24; 3920,000; 2195,000; 5695,000;49,28571
1599,11; 3654,000; 1935,000; 5426,000;49,24091
1602,96; 3705,000; 2027,000; 5422,000;49,42563
1606,82; 3568,000; 1926,000; 5276,000;49,01493
1610,67; 3833,000; 2202,000; 5507,000;49,34947
1614,51; 3982,000; 2375,000; 5635,000;49,29448
1618,35; 3563,000; 1955,000; 5143,000;50,43915
1622,18; 3742,000; 2163,000; 5307,000;50,22265
1626,01; 3756,000; 2191,000; 5286,000;50,56543
1629,83; 3784,000; 2237,000; 5309,000;50,35807
1633,65; 3895,000; 2363,000; 5411,000;50,26247
1637,46; 3593,000; 2065,000; 5041,000;51,34409
1641,27; 3547,000; 2043,000; 4995,000;50,94851
1645,07; 3492,000; 2025,000; 4923,000;50,62112
1648,86; 3500,000; 2022,000; 4872,000;51,85965
1652,66; 3445,000; 2009,000; 4849,000;50,56338
1656,44; 3524,000; 2080,000; 4866,000;51,83058
1660,22; 3713,000; 2279,000; 5011,000;52,48902
1664,00; 3812,000; 2386,000; 5119,000;52,17709
1667,77; 3578,000; 2147,000; 4820,000;53,53535
1671,53; 3502,000; 2096,000; 4676,000;54,49612
1675,29; 3384,000; 1956,000; 4597,000;54,07043
1679,05; 3652,000; 2235,000; 4841,000;54,37452
1682,80; 3528,000; 2121,000; 4673,000;55,13323
1686,54; 3757,000; 2345,000; 4882,000;55,65629
1690,28; 3735,000; 2330,000; 4848,000;55,79825
1694,01; 3308,000; 1942,000; 4390,000;55,80065
1697,74; 3432,000; 2079,000; 4510,000;55,65611
1701,46; 3624,000; 2282,000; 4676,000;56,05681
1705,18; 3332,000; 2006,000; 4351,000;56,54584
1708,89; 3225,000; 1911,000; 4242,000;56,37066
1712,60; 3564,000; 2253,000; 4569,000;56,60622
1716,30; 3578,000; 2295,000; 4547,000;56,97158
1720,00; 3614,000; 2337,000; 4572,000;57,13647
1723,69; 3536,000; 2261,000; 4469,000;57,74457
1727,38; 3156,000; 1905,000; 4079,000;57,54370
1731,06; 3454,000; 2204,000; 4366,000;57,81684
1734,73; 3385,000; 2153,000; 4269,000;58,22306
1738,40; 3243,000; 1998,000; 4086,000;59,62644
1742,07; 3650,000; 2398,000; 4492,000;59,78988
1745,73; 3282,000; 2036,000; 4113,000;59,99037
1749,38; 3541,000; 2316,000; 4333,000;60,73376
1753,03; 3604,000; 2360,000; 4336,000;62,95547
1756,67; 3387,000; 2169,000; 4109,000;62,78351
1760,31; 3501,000; 2287,000; 4202,000;63,39426
1763,94; 3429,000; 2226,000; 4114,000;63,71822
1767,57; 3406,000; 2202,000; 4056,000;64,94067
1771,19; 3268,000; 2090,000; 3874,000;66,03139
1774,81; 3415,000; 2248,000; 4032,000;65,41480
1778,42; 3426,000; 2269,000; 4027,000;65,81342
1782,03; 3228,000; 2095,000; 3823,000;65,56713
1785,63; 3167,000; 2035,000; 3722,000;67,10136
1789,22; 3214,000; 2111,000; 3791,000;65,65476
1792,81; 3063,000; 1992,000; 3582,000;67,35849
1796,40; 2953,000; 1886,000; 3487,000;66,64585
1799,98; 3512,000; 2449,000; 4025,000;67,44924
1803,55; 3231,000; 2183,000; 3731,000;67,70026
1807,12; 3081,000; 2061,000; 3579,000;67,19368
1810,68; 3723,000; 2694,000; 4197,000;68,46307
1814,24; 2994,000; 1955,000; 3431,000;70,39295
1817,79; 3504,000; 2464,000; 3918,000;71,52682
1821,34; 3635,000; 2605,000; 4045,000;71,52778
1824,88; 3036,000; 2018,000; 3427,000;72,24982
1828,41; 3305,000; 2289,000; 3672,000;73,46349
1831,94; 3165,000; 2125,000; 3487,000;76,35830
1835,47; 2926,000; 1906,000; 3243,000;76,29020
1838,99; 3307,000; 2296,000; 3612,000;76,82371
1842,50; 3134,000; 2133,000; 3433,000;77,00000
1846,01; 3022,000; 2020,000; 3270,000;80,16000
1849,51; 2798,000; 1814,000; 3091,000;77,05560
1853,01; 2905,000; 1929,000; 3201,000;76,72956
1856,50; 3731,000; 2700,000; 3984,000;80,29595
1859,99; 2823,000; 1862,000; 3058,000;80,35117
1863,47; 3163,000; 2216,000; 3413,000;79,11445
1866,94; 2947,000; 2005,000; 3183,000;79,96604
1870,41; 3356,000; 2432,000; 3602,000;78,97436
1873,88; 3145,000; 2210,000; 3354,000;81,73077
1877,34; 3417,000; 2493,000; 3625,000;81,62544
1880,79; 3299,000; 2396,000; 3490,000;82,54113
1884,24; 3263,000; 2396,000; 3479,000;80,05540
1887,68; 2916,000; 2020,000; 3039,000;87,92934
1891,12; 2766,000; 1891,000; 2931,000;84,13462
1894,55; 2894,000; 2022,000; 3034,000;86,16601
1897,98; 3171,000; 2272,000; 3275,000;89,63111
1901,40; 2917,000; 2030,000; 3031,000;88,61139

