C_PETG_FCR_1
Integration time [ms]: 100,000
Averaging Nr. [scans]: 1
Smoothing Nr. [pixels]: 0
Data measured with spectrometer [name]: 1204091U1
Wave   ;Sample   ;Dark     ;Reference;Reflectance
[nm]   ;[counts] ;[counts] ;[counts] ;[%]

1014,48; 6807,000; 2159,000; 6686,000;102,67285
1019,01; 7208,000; 2263,000; 7134,000;101,51920
1023,54; 7674,000; 2460,000; 7582,000;101,79617
1028,07; 7798,000; 2357,000; 7740,000;101,07747
1032,59; 7989,000; 2222,000; 7947,000;100,73362
1037,10; 8377,000; 2251,000; 8409,000;99,48035
1041,62; 8716,000; 2335,000; 8775,000;99,08385
1046,12; 9481,000; 2824,000; 9555,000;98,90061
1050,62; 9125,000; 2300,000; 9240,000;98,34294
1055,12; 9256,000; 2181,000; 9387,000;98,18207
1059,62; 9194,000; 2009,000; 9358,000;97,76840
1064,10; 9824,000; 2401,000;10031,000;97,28702
1068,59;10196,000; 2570,000;10411,000;97,25800
1073,07;10292,000; 2356,000;10516,000;97,25490
1077,54;10348,000; 2278,000;10631,000;96,61200
1082,01;10755,000; 2486,000;11025,000;96,83804
1086,48;11030,000; 2488,000;11325,000;96,66176
1090,94;10664,000; 2081,000;10975,000;96,50326
1095,39;11936,000; 3026,000;12290,000;96,17876
1099,85;11452,000; 2345,000;11921,000;95,10234
1104,29;11721,000; 2403,000;12226,000;94,85900
1108,73;11481,000; 2060,000;12064,000;94,17233
1113,17;12232,000; 2768,000;12897,000;93,43469
1117,61;11918,000; 2351,000;12709,000;92,36339
1122,03;12274,000; 2714,000;13178,000;91,36086
1126,46;11878,000; 2237,000;12873,000;90,64498
1130,88;11918,000; 2154,000;12946,000;90,47443
1135,29;12724,000; 2780,000;13624,000;91,70048
1139,70;12341,000; 2109,000;13204,000;92,22172
1144,11;12555,000; 2181,000;13375,000;92,67465
1148,51;12711,000; 2244,000;13522,000;92,80901
1152,90;12803,000; 2301,000;13707,000;92,07435
1157,29;12488,000; 2006,000;13470,000;91,43405
1161,68;12814,000; 2262,000;13824,000;91,26449
1166,06;12739,000; 2248,000;13803,000;90,79186
1170,44;12809,000; 2494,000;13961,000;89,95378
1174,81;12239,000; 2196,000;13387,000;89,74176
1179,18;12344,000; 2339,000;13505,000;89,60236
1183,54;12397,000; 2531,000;13570,000;89,37404
1187,90;12407,000; 2580,000;13523,000;89,80170
1192,25;12084,000; 2379,000;13172,000;89,91939
1196,60;11869,000; 2222,000;12903,000;90,31926
1200,94;12014,000; 2485,000;12994,000;90,67466
1205,28;11666,000; 2285,000;12529,000;91,57556
1209,62;11787,000; 2418,000;12639,000;91,66422
1213,95;11880,000; 2543,000;12596,000;92,87775
1218,27;11400,000; 2113,000;12057,000;93,39300
1222,59;11781,000; 2762,000;12319,000;94,37062
1226,91;11575,000; 2482,000;12036,000;95,17480
1231,22;11245,000; 2269,000;11621,000;95,97947
1235,52;10836,000; 1935,000;11126,000;96,84474
1239,82;11114,000; 2360,000;11354,000;97,33155
1244,12;10764,000; 2191,000;10953,000;97,84296
1248,41;11037,000; 2519,000;11152,000;98,66790
1252,70;10168,000; 1808,000;10246,000;99,07561
1256,98;10410,000; 2069,000;10481,000;99,15597
1261,26;10851,000; 2578,000;10887,000;99,56673
1265,53;10050,000; 1911,000;10040,000;100,12302
1269,80;10238,000; 2085,000;10196,000;100,51782
1274,06;10476,000; 2472,000;10429,000;100,59067
1278,32;10179,000; 2246,000;10116,000;100,80051
1282,57;10203,000; 2315,000;10115,000;101,12821
1286,82;10011,000; 2159,000; 9878,000;101,72302
1291,06;10183,000; 2434,000; 9974,000;102,77188
1295,30;10098,000; 2354,000; 9886,000;102,81466
1299,53;10293,000; 2461,000;10030,000;103,47470
1303,76;10081,000; 2315,000; 9771,000;104,15773
1307,99;10361,000; 2633,000;10041,000;104,31965
1312,20;10209,000; 2539,000; 9875,000;104,55289
1316,42; 9693,000; 2175,000; 9339,000;104,94137
1320,63; 9672,000; 2246,000; 9303,000;105,22885
1324,83; 9174,000; 1875,000; 8811,000;105,23356
1329,03; 9502,000; 2294,000; 9122,000;105,56532
1333,23; 9206,000; 2137,000; 8853,000;105,25610
1337,42; 9446,000; 2453,000; 9095,000;105,28455
1341,60; 8902,000; 2063,000; 8573,000;105,05376
1345,78; 9105,000; 2407,000; 8779,000;105,11613
1349,96; 8601,000; 1977,000; 8295,000;104,84330
1354,13; 8713,000; 2218,000; 8428,000;104,58937
1358,29; 8433,000; 2040,000; 8181,000;104,10357
1362,46; 8619,000; 2455,000; 8370,000;104,20964
1366,61; 8460,000; 2409,000; 8197,000;104,54388
1370,76; 8062,000; 2106,000; 7751,000;105,50930
1374,91; 8362,000; 2653,000; 8072,000;105,35154
1379,05; 7516,000; 2056,000; 7236,000;105,40541
1383,18; 8359,000; 2983,000; 8057,000;105,95191
1387,32; 7430,000; 2042,000; 7174,000;104,98831
1391,44; 7425,000; 2029,000; 7155,000;105,26726
1395,56; 8237,000; 2838,000; 7994,000;104,71296
1399,68; 7348,000; 1864,000; 7116,000;104,41736
1403,79; 7579,000; 2045,000; 7382,000;103,69121
1407,90; 7511,000; 1975,000; 7279,000;104,37406
1412,00; 7618,000; 2064,000; 7433,000;103,44571
1416,10; 8000,000; 2407,000; 7775,000;104,19151
1420,19; 7656,000; 2106,000; 7422,000;104,40181
1424,27; 7829,000; 2292,000; 7597,000;104,37323
1428,36; 7891,000; 2373,000; 7627,000;105,02474
1432,43; 8031,000; 2538,000; 7760,000;105,18958
1436,50; 7680,000; 2221,000; 7397,000;105,46754
1440,57; 7832,000; 2379,000; 7559,000;105,27027
1444,63; 7484,000; 2054,000; 7190,000;105,72430
1448,69; 7239,000; 1832,000; 6909,000;106,49990
1452,74; 7525,000; 2149,000; 7178,000;106,89998
1456,79; 7282,000; 1924,000; 6934,000;106,94611
1460,83; 7416,000; 2085,000; 7017,000;108,09002
1464,87; 7694,000; 2389,000; 7273,000;108,61998
1468,90; 7679,000; 2366,000; 7250,000;108,78378
1472,93; 7558,000; 2274,000; 7073,000;110,10627
1476,95; 7563,000; 2304,000; 7073,000;110,27469
1480,96; 7222,000; 2026,000; 6740,000;110,22486
1484,98; 7449,000; 2214,000; 6916,000;111,33560
1488,98; 7465,000; 2321,000; 6981,000;110,38627
1492,98; 7493,000; 2415,000; 6974,000;111,38408
1496,98; 7141,000; 2066,000; 6594,000;112,08039
1500,97; 7485,000; 2503,000; 6934,000;112,43512
1504,96; 6876,000; 1869,000; 6310,000;112,74488
1508,94; 7464,000; 2442,000; 6874,000;113,31227
1512,92; 7028,000; 2047,000; 6459,000;112,89665
1516,89; 7140,000; 2181,000; 6559,000;113,27090
1520,85; 6972,000; 2039,000; 6397,000;113,19413
1524,81; 7522,000; 2622,000; 6923,000;113,92699
1528,77; 6888,000; 1993,000; 6335,000;112,73607
1532,72; 6940,000; 2083,000; 6385,000;112,90098
1536,67; 7368,000; 2574,000; 6827,000;112,72043
1540,61; 6710,000; 2053,000; 6158,000;113,44702
1544,54; 7101,000; 2397,000; 6559,000;113,02259
1548,47; 6512,000; 1870,000; 5963,000;113,41314
1552,40; 6916,000; 2311,000; 6340,000;114,29635
1556,32; 6862,000; 2289,000; 6299,000;114,03990
1560,23; 6673,000; 2216,000; 6063,000;115,85651
1564,15; 6730,000; 2266,000; 6123,000;115,73762
1568,05; 6554,000; 2111,000; 5937,000;116,12650
1571,95; 6812,000; 2431,000; 6174,000;117,04515
1575,84; 6405,000; 2066,000; 5767,000;117,23858
1579,73; 6612,000; 2334,000; 5973,000;117,55977
1583,62; 6467,000; 2251,000; 5853,000;117,04609
1587,50; 6179,000; 1973,000; 5552,000;117,51886
1591,37; 6638,000; 2501,000; 6051,000;116,53521
1595,24; 6282,000; 2195,000; 5695,000;116,77143
1599,11; 5986,000; 1935,000; 5426,000;116,04125
1602,96; 5999,000; 2027,000; 5422,000;116,99558
1606,82; 5811,000; 1926,000; 5276,000;115,97015
1610,67; 6001,000; 2202,000; 5507,000;114,94705
1614,51; 6107,000; 2375,000; 5635,000;114,47853
1618,35; 5623,000; 1955,000; 5143,000;115,05646
1622,18; 5785,000; 2163,000; 5307,000;115,20356
1626,01; 5709,000; 2191,000; 5286,000;113,66721
1629,83; 5662,000; 2237,000; 5309,000;111,49089
1633,65; 5711,000; 2363,000; 5411,000;109,84252
1637,46; 5309,000; 2065,000; 5041,000;109,00538
1641,27; 5152,000; 2043,000; 4995,000;105,31843
1645,07; 5038,000; 2025,000; 4923,000;103,96825
1648,86; 4965,000; 2022,000; 4872,000;103,26316
1652,66; 4907,000; 2009,000; 4849,000;102,04225
1656,44; 4906,000; 2080,000; 4866,000;101,43575
1660,22; 5068,000; 2279,000; 5011,000;102,08638
1664,00; 5185,000; 2386,000; 5119,000;102,41493
1667,77; 4948,000; 2147,000; 4820,000;104,78863
1671,53; 4877,000; 2096,000; 4676,000;107,79070
1675,29; 4765,000; 1956,000; 4597,000;106,36123
1679,05; 5050,000; 2235,000; 4841,000;108,01995
1682,80; 4862,000; 2121,000; 4673,000;107,40596
1686,54; 5102,000; 2345,000; 4882,000;108,67166
1690,28; 5098,000; 2330,000; 4848,000;109,92851
1694,01; 4624,000; 1942,000; 4390,000;109,55882
1697,74; 4727,000; 2079,000; 4510,000;108,92637
1701,46; 4887,000; 2282,000; 4676,000;108,81370
1705,18; 4563,000; 2006,000; 4351,000;109,04051
1708,89; 4441,000; 1911,000; 4242,000;108,53711
1712,60; 4762,000; 2253,000; 4569,000;108,33333
1716,30; 4745,000; 2295,000; 4547,000;108,79218
1720,00; 4771,000; 2337,000; 4572,000;108,90380
1723,69; 4713,000; 2261,000; 4469,000;111,05072
1727,38; 4302,000; 1905,000; 4079,000;110,25759
1731,06; 4619,000; 2204,000; 4366,000;111,70213
1734,73; 4552,000; 2153,000; 4269,000;113,37429
1738,40; 4415,000; 1998,000; 4086,000;115,75670
1742,07; 4810,000; 2398,000; 4492,000;115,18625
1745,73; 4485,000; 2036,000; 4113,000;117,91045
1749,38; 4709,000; 2316,000; 4333,000;118,64155
1753,03; 4722,000; 2360,000; 4336,000;119,53441
1756,67; 4507,000; 2169,000; 4109,000;120,51546
1760,31; 4589,000; 2287,000; 4202,000;120,20888
1763,94; 4496,000; 2226,000; 4114,000;120,23305
1767,57; 4436,000; 2202,000; 4056,000;120,49622
1771,19; 4287,000; 2090,000; 3874,000;123,15022
1774,81; 4425,000; 2248,000; 4032,000;122,02915
1778,42; 4422,000; 2269,000; 4027,000;122,46871
1782,03; 4238,000; 2095,000; 3823,000;124,01620
1785,63; 4136,000; 2035,000; 3722,000;124,54060
1789,22; 4205,000; 2111,000; 3791,000;124,64286
1792,81; 3998,000; 1992,000; 3582,000;126,16352
1796,40; 3921,000; 1886,000; 3487,000;127,10806
1799,98; 4473,000; 2449,000; 4025,000;128,42640
1803,55; 4180,000; 2183,000; 3731,000;129,00517
1807,12; 4036,000; 2061,000; 3579,000;130,10540
1810,68; 4663,000; 2694,000; 4197,000;131,00466
1814,24; 3922,000; 1955,000; 3431,000;133,26558
1817,79; 4430,000; 2464,000; 3918,000;135,21320
1821,34; 4550,000; 2605,000; 4045,000;135,06944
1824,88; 3930,000; 2018,000; 3427,000;135,69908
1828,41; 4201,000; 2289,000; 3672,000;138,25018
1831,94; 3991,000; 2125,000; 3487,000;137,00441
1835,47; 3769,000; 1906,000; 3243,000;139,34181
1838,99; 4115,000; 2296,000; 3612,000;138,22188
1842,50; 3961,000; 2133,000; 3433,000;140,61538
1846,01; 3788,000; 2020,000; 3270,000;141,44000
1849,51; 3609,000; 1814,000; 3091,000;140,56382
1853,01; 3682,000; 1929,000; 3201,000;137,81447
1856,50; 4485,000; 2700,000; 3984,000;139,01869
1859,99; 3574,000; 1862,000; 3058,000;143,14381
1863,47; 3906,000; 2216,000; 3413,000;141,18630
1866,94; 3656,000; 2005,000; 3183,000;140,15280
1870,41; 4079,000; 2432,000; 3602,000;140,76923
1873,88; 3862,000; 2210,000; 3354,000;144,40559
1877,34; 4143,000; 2493,000; 3625,000;145,75972
1880,79; 4017,000; 2396,000; 3490,000;148,17185
1884,24; 3990,000; 2396,000; 3479,000;147,18375
1887,68; 3577,000; 2020,000; 3039,000;152,79686
1891,12; 3429,000; 1891,000; 2931,000;147,88462
1894,55; 3541,000; 2022,000; 3034,000;150,09881
1897,98; 3774,000; 2272,000; 3275,000;149,75075
1901,40; 3535,000; 2030,000; 3031,000;150,34965

