D_PETG_FCR_1
Integration time [ms]: 100,000
Averaging Nr. [scans]: 1
Smoothing Nr. [pixels]: 0
Data measured with spectrometer [name]: 1204091U1
Wave   ;Sample   ;Dark     ;Reference;Reflectance
[nm]   ;[counts] ;[counts] ;[counts] ;[%]

1014,48; 8970,000; 2159,000; 6686,000;150,45284
1019,01; 9528,000; 2263,000; 7134,000;149,14802
1023,54;10116,000; 2460,000; 7582,000;149,47286
1028,07;10350,000; 2357,000; 7740,000;148,48597
1032,59;10685,000; 2222,000; 7947,000;147,82533
1037,10;11283,000; 2251,000; 8409,000;146,67100
1041,62;11752,000; 2335,000; 8775,000;146,22671
1046,12;12628,000; 2824,000; 9555,000;145,65443
1050,62;12401,000; 2300,000; 9240,000;145,54755
1055,12;12606,000; 2181,000; 9387,000;144,67111
1059,62;12651,000; 2009,000; 9358,000;144,80882
1064,10;13414,000; 2401,000;10031,000;144,33814
1068,59;13886,000; 2570,000;10411,000;144,31833
1073,07;14130,000; 2356,000;10516,000;144,28922
1077,54;14293,000; 2278,000;10631,000;143,84054
1082,01;14783,000; 2486,000;11025,000;144,00984
1086,48;15155,000; 2488,000;11325,000;143,34050
1090,94;14875,000; 2081,000;10975,000;143,84979
1095,39;16305,000; 3026,000;12290,000;143,33981
1099,85;15956,000; 2345,000;11921,000;142,13659
1104,29;16335,000; 2403,000;12226,000;141,83040
1108,73;16201,000; 2060,000;12064,000;141,35346
1113,17;16949,000; 2768,000;12897,000;140,00395
1117,61;16702,000; 2351,000;12709,000;138,54991
1122,03;17104,000; 2714,000;13178,000;137,51911
1126,46;16763,000; 2237,000;12873,000;136,57390
1130,88;16858,000; 2154,000;12946,000;136,24907
1135,29;17676,000; 2780,000;13624,000;137,36629
1139,70;17425,000; 2109,000;13204,000;138,04416
1144,11;17706,000; 2181,000;13375,000;138,69037
1148,51;17905,000; 2244,000;13522,000;138,86327
1152,90;18061,000; 2301,000;13707,000;138,17289
1157,29;17816,000; 2006,000;13470,000;137,90998
1161,68;18116,000; 2262,000;13824,000;137,12161
1166,06;18039,000; 2248,000;13803,000;136,65945
1170,44;18058,000; 2494,000;13961,000;135,72861
1174,81;17372,000; 2196,000;13387,000;135,60897
1179,18;17442,000; 2339,000;13505,000;135,25882
1183,54;17442,000; 2531,000;13570,000;135,07564
1187,90;17401,000; 2580,000;13523,000;135,43818
1192,25;17013,000; 2379,000;13172,000;135,58788
1196,60;16724,000; 2222,000;12903,000;135,77380
1200,94;16815,000; 2485,000;12994,000;136,35931
1205,28;16343,000; 2285,000;12529,000;137,23155
1209,62;16478,000; 2418,000;12639,000;137,55993
1213,95;16486,000; 2543,000;12596,000;138,69492
1218,27;15978,000; 2113,000;12057,000;139,43081
1222,59;16197,000; 2762,000;12319,000;140,57759
1226,91;15999,000; 2482,000;12036,000;141,48001
1231,22;15543,000; 2269,000;11621,000;141,93755
1235,52;15049,000; 1935,000;11126,000;142,68306
1239,82;15279,000; 2360,000;11354,000;143,64020
1244,12;14790,000; 2191,000;10953,000;143,79137
1248,41;14991,000; 2519,000;11152,000;144,46890
1252,70;14045,000; 1808,000;10246,000;145,02252
1256,98;14266,000; 2069,000;10481,000;144,99524
1261,26;14661,000; 2578,000;10887,000;145,42063
1265,53;13809,000; 1911,000;10040,000;146,36487
1269,80;13979,000; 2085,000;10196,000;146,64036
1274,06;14154,000; 2472,000;10429,000;146,81413
1278,32;13843,000; 2246,000;10116,000;147,35705
1282,57;13850,000; 2315,000;10115,000;147,88462
1286,82;13584,000; 2159,000; 9878,000;148,01140
1291,06;13661,000; 2434,000; 9974,000;148,89920
1295,30;13569,000; 2354,000; 9886,000;148,89804
1299,53;13761,000; 2461,000;10030,000;149,29317
1303,76;13553,000; 2315,000; 9771,000;150,72425
1307,99;13818,000; 2633,000;10041,000;150,98542
1312,20;13598,000; 2539,000; 9875,000;150,74973
1316,42;13008,000; 2175,000; 9339,000;151,21441
1320,63;12910,000; 2246,000; 9303,000;151,11237
1324,83;12378,000; 1875,000; 8811,000;151,42734
1329,03;12639,000; 2294,000; 9122,000;151,50849
1333,23;12303,000; 2137,000; 8853,000;151,36986
1337,42;12510,000; 2453,000; 9095,000;151,41524
1341,60;11889,000; 2063,000; 8573,000;150,93702
1345,78;12029,000; 2407,000; 8779,000;151,00439
1349,96;11447,000; 1977,000; 8295,000;149,88921
1354,13;11509,000; 2218,000; 8428,000;149,61353
1358,29;11175,000; 2040,000; 8181,000;148,75427
1362,46;11314,000; 2455,000; 8370,000;149,77177
1366,61;11084,000; 2409,000; 8197,000;149,87906
1370,76;10597,000; 2106,000; 7751,000;150,41630
1374,91;10790,000; 2653,000; 8072,000;150,15686
1379,05; 9849,000; 2056,000; 7236,000;150,44402
1383,18;10629,000; 2983,000; 8057,000;150,68979
1387,32; 9716,000; 2042,000; 7174,000;149,53235
1391,44; 9714,000; 2029,000; 7155,000;149,92197
1395,56;10507,000; 2838,000; 7994,000;148,73933
1399,68; 9648,000; 1864,000; 7116,000;148,21021
1403,79; 9932,000; 2045,000; 7382,000;147,77965
1407,90; 9846,000; 1975,000; 7279,000;148,39744
1412,00; 9975,000; 2064,000; 7433,000;147,34587
1416,10;10359,000; 2407,000; 7775,000;148,13711
1420,19; 9992,000; 2106,000; 7422,000;148,34462
1424,27;10142,000; 2292,000; 7597,000;147,97361
1428,36;10215,000; 2373,000; 7627,000;149,25771
1432,43;10329,000; 2538,000; 7760,000;149,19571
1436,50; 9989,000; 2221,000; 7397,000;150,07728
1440,57;10158,000; 2379,000; 7559,000;150,17375
1444,63; 9803,000; 2054,000; 7190,000;150,87617
1448,69; 9537,000; 1832,000; 6909,000;151,76285
1452,74; 9814,000; 2149,000; 7178,000;152,41599
1456,79; 9554,000; 1924,000; 6934,000;152,29541
1460,83; 9657,000; 2085,000; 7017,000;153,52798
1464,87; 9891,000; 2389,000; 7273,000;153,60360
1468,90; 9894,000; 2366,000; 7250,000;154,13595
1472,93; 9723,000; 2274,000; 7073,000;155,21984
1476,95; 9749,000; 2304,000; 7073,000;156,11239
1480,96; 9380,000; 2026,000; 6740,000;156,00339
1484,98; 9557,000; 2214,000; 6916,000;156,16759
1488,98; 9591,000; 2321,000; 6981,000;156,00858
1492,98; 9533,000; 2415,000; 6974,000;156,13073
1496,98; 9122,000; 2066,000; 6594,000;155,83039
1500,97; 9468,000; 2503,000; 6934,000;157,18799
1504,96; 8804,000; 1869,000; 6310,000;156,15852
1508,94; 9381,000; 2442,000; 6874,000;156,56588
1512,92; 8938,000; 2047,000; 6459,000;156,18767
1516,89; 9063,000; 2181,000; 6559,000;157,19507
1520,85; 8870,000; 2039,000; 6397,000;156,74621
1524,81; 9384,000; 2622,000; 6923,000;157,21925
1528,77; 8802,000; 1993,000; 6335,000;156,81713
1532,72; 8841,000; 2083,000; 6385,000;157,08973
1536,67; 9215,000; 2574,000; 6827,000;156,14860
1540,61; 8539,000; 2053,000; 6158,000;158,00244
1544,54; 8954,000; 2397,000; 6559,000;157,54445
1548,47; 8315,000; 1870,000; 5963,000;157,46396
1552,40; 8710,000; 2311,000; 6340,000;158,82353
1556,32; 8647,000; 2289,000; 6299,000;158,55362
1560,23; 8381,000; 2216,000; 6063,000;160,25474
1564,15; 8457,000; 2266,000; 6123,000;160,51335
1568,05; 8237,000; 2111,000; 5937,000;160,11500
1571,95; 8481,000; 2431,000; 6174,000;161,63505
1575,84; 8049,000; 2066,000; 5767,000;161,65901
1579,73; 8238,000; 2334,000; 5973,000;162,24237
1583,62; 8072,000; 2251,000; 5853,000;161,60466
1587,50; 7748,000; 1973,000; 5552,000;161,35792
1591,37; 8214,000; 2501,000; 6051,000;160,92958
1595,24; 7816,000; 2195,000; 5695,000;160,60000
1599,11; 7481,000; 1935,000; 5426,000;158,86565
1602,96; 7484,000; 2027,000; 5422,000;160,73638
1606,82; 7268,000; 1926,000; 5276,000;159,46269
1610,67; 7421,000; 2202,000; 5507,000;157,91225
1614,51; 7482,000; 2375,000; 5635,000;156,65644
1618,35; 6976,000; 1955,000; 5143,000;157,49686
1622,18; 7116,000; 2163,000; 5307,000;157,53817
1626,01; 7006,000; 2191,000; 5286,000;155,57351
1629,83; 6940,000; 2237,000; 5309,000;153,09245
1633,65; 6927,000; 2363,000; 5411,000;149,73753
1637,46; 6454,000; 2065,000; 5041,000;147,47984
1641,27; 6226,000; 2043,000; 4995,000;141,70054
1645,07; 6013,000; 2025,000; 4923,000;137,61215
1648,86; 5840,000; 2022,000; 4872,000;133,96491
1652,66; 5721,000; 2009,000; 4849,000;130,70423
1656,44; 5663,000; 2080,000; 4866,000;128,60732
1660,22; 5759,000; 2279,000; 5011,000;127,37921
1664,00; 5888,000; 2386,000; 5119,000;128,13758
1667,77; 5714,000; 2147,000; 4820,000;133,44557
1671,53; 5670,000; 2096,000; 4676,000;138,52713
1675,29; 5655,000; 1956,000; 4597,000;140,06058
1679,05; 5919,000; 2235,000; 4841,000;141,36608
1682,80; 5738,000; 2121,000; 4673,000;141,73197
1686,54; 5957,000; 2345,000; 4882,000;142,37288
1690,28; 5975,000; 2330,000; 4848,000;144,75774
1694,01; 5523,000; 1942,000; 4390,000;146,28268
1697,74; 5609,000; 2079,000; 4510,000;145,20773
1701,46; 5711,000; 2282,000; 4676,000;143,23308
1705,18; 5394,000; 2006,000; 4351,000;144,47761
1708,89; 5259,000; 1911,000; 4242,000;143,62934
1712,60; 5567,000; 2253,000; 4569,000;143,09154
1716,30; 5532,000; 2295,000; 4547,000;143,73890
1720,00; 5575,000; 2337,000; 4572,000;144,87696
1723,69; 5449,000; 2261,000; 4469,000;144,38406
1727,38; 5057,000; 1905,000; 4079,000;144,98620
1731,06; 5353,000; 2204,000; 4366,000;145,65217
1734,73; 5292,000; 2153,000; 4269,000;148,34594
1738,40; 5153,000; 1998,000; 4086,000;151,10153
1742,07; 5544,000; 2398,000; 4492,000;150,23878
1745,73; 5178,000; 2036,000; 4113,000;151,27588
1749,38; 5402,000; 2316,000; 4333,000;152,99950
1753,03; 5358,000; 2360,000; 4336,000;151,72065
1756,67; 5156,000; 2169,000; 4109,000;153,96907
1760,31; 5262,000; 2287,000; 4202,000;155,35248
1763,94; 5191,000; 2226,000; 4114,000;157,04449
1767,57; 5109,000; 2202,000; 4056,000;156,79612
1771,19; 4959,000; 2090,000; 3874,000;160,81839
1774,81; 5094,000; 2248,000; 4032,000;159,52915
1778,42; 5103,000; 2269,000; 4027,000;161,20592
1782,03; 4891,000; 2095,000; 3823,000;161,80556
1785,63; 4806,000; 2035,000; 3722,000;164,25608
1789,22; 4837,000; 2111,000; 3791,000;162,26190
1792,81; 4627,000; 1992,000; 3582,000;165,72327
1796,40; 4529,000; 1886,000; 3487,000;165,08432
1799,98; 5087,000; 2449,000; 4025,000;167,38579
1803,55; 4797,000; 2183,000; 3731,000;168,86305
1807,12; 4606,000; 2061,000; 3579,000;167,65481
1810,68; 5233,000; 2694,000; 4197,000;168,92881
1814,24; 4474,000; 1955,000; 3431,000;170,66396
1817,79; 4955,000; 2464,000; 3918,000;171,32050
1821,34; 5078,000; 2605,000; 4045,000;171,73611
1824,88; 4437,000; 2018,000; 3427,000;171,68204
1828,41; 4720,000; 2289,000; 3672,000;175,77730
1831,94; 4501,000; 2125,000; 3487,000;174,44934
1835,47; 4269,000; 1906,000; 3243,000;176,73897
1838,99; 4639,000; 2296,000; 3612,000;178,03951
1842,50; 4454,000; 2133,000; 3433,000;178,53846
1846,01; 4306,000; 2020,000; 3270,000;182,88000
1849,51; 4090,000; 1814,000; 3091,000;178,23023
1853,01; 4178,000; 1929,000; 3201,000;176,80818
1856,50; 4969,000; 2700,000; 3984,000;176,71340
1859,99; 4067,000; 1862,000; 3058,000;184,36455
1863,47; 4423,000; 2216,000; 3413,000;184,37761
1866,94; 4153,000; 2005,000; 3183,000;182,34295
1870,41; 4523,000; 2432,000; 3602,000;178,71795
1873,88; 4332,000; 2210,000; 3354,000;185,48951
1877,34; 4605,000; 2493,000; 3625,000;186,57244
1880,79; 4445,000; 2396,000; 3490,000;187,29433
1884,24; 4404,000; 2396,000; 3479,000;185,41090
1887,68; 3957,000; 2020,000; 3039,000;190,08832
1891,12; 3804,000; 1891,000; 2931,000;183,94231
1894,55; 3898,000; 2022,000; 3034,000;185,37549
1897,98; 4132,000; 2272,000; 3275,000;185,44367
1901,40; 3856,000; 2030,000; 3031,000;182,41758

