KL603_PS_FCR_1
Integration time [ms]: 100,000
Averaging Nr. [scans]: 1
Smoothing Nr. [pixels]: 0
Data measured with spectrometer [name]: 1204091U1
Wave   ;Sample   ;Dark     ;Reference;Reflectance
[nm]   ;[counts] ;[counts] ;[counts] ;[%]

1014,48; 6126,000; 2453,000; 7571,000;71,76631
1019,01; 6449,000; 2571,000; 8072,000;70,49627
1023,54; 6801,000; 2760,000; 8557,000;69,70847
1028,07; 6854,000; 2645,000; 8728,000;69,19283
1032,59; 6917,000; 2542,000; 8976,000;67,99813
1037,10; 7211,000; 2552,000; 9493,000;67,12289
1041,62; 7472,000; 2645,000; 9874,000;66,77272
1046,12; 8124,000; 3172,000;10692,000;65,85106
1050,62; 7761,000; 2658,000;10426,000;65,69258
1055,12; 7738,000; 2509,000;10544,000;65,07778
1059,62; 7653,000; 2352,000;10536,000;64,77273
1064,10; 8210,000; 2726,000;11217,000;64,58603
1068,59; 8548,000; 2932,000;11644,000;64,46281
1073,07; 8496,000; 2693,000;11791,000;63,78325
1077,54; 8535,000; 2612,000;11902,000;63,75673
1082,01; 8852,000; 2824,000;12356,000;63,23961
1086,48; 9001,000; 2801,000;12632,000;63,06581
1090,94; 8622,000; 2380,000;12314,000;62,83471
1095,39; 9790,000; 3344,000;13669,000;62,43099
1099,85; 9215,000; 2612,000;13309,000;61,72759
1104,29; 9398,000; 2682,000;13632,000;61,33333
1108,73; 9122,000; 2312,000;13510,000;60,81443
1113,17; 9875,000; 3042,000;14359,000;60,37819
1117,61; 9535,000; 2646,000;14198,000;59,63470
1122,03; 9973,000; 3046,000;14722,000;59,32682
1126,46; 9507,000; 2527,000;14400,000;58,78885
1130,88; 9511,000; 2466,000;14495,000;58,56680
1135,29;10197,000; 3111,000;15219,000;58,52329
1139,70; 9637,000; 2407,000;14793,000;58,37236
1144,11; 9798,000; 2489,000;14967,000;58,57509
1148,51; 9937,000; 2565,000;15172,000;58,47545
1152,90;10053,000; 2579,000;15293,000;58,78559
1157,29; 9882,000; 2339,000;15111,000;59,05888
1161,68;10172,000; 2547,000;15452,000;59,08563
1166,06;10141,000; 2534,000;15403,000;59,11104
1170,44;10322,000; 2810,000;15520,000;59,10307
1174,81; 9878,000; 2521,000;14948,000;59,20174
1179,18; 9995,000; 2667,000;15071,000;59,07772
1183,54;10094,000; 2847,000;15116,000;59,06757
1187,90;10086,000; 2891,000;15091,000;58,97541
1192,25; 9753,000; 2667,000;14694,000;58,91744
1196,60; 9529,000; 2522,000;14434,000;58,82304
1200,94; 9675,000; 2733,000;14497,000;59,01054
1205,28; 9315,000; 2575,000;14032,000;58,82866
1209,62; 9383,000; 2673,000;14073,000;58,85965
1213,95; 9434,000; 2827,000;14061,000;58,81253
1218,27; 8908,000; 2397,000;13503,000;58,62597
1222,59; 9335,000; 3050,000;13756,000;58,70540
1226,91; 9051,000; 2791,000;13486,000;58,53202
1231,22; 8675,000; 2566,000;13022,000;58,42578
1235,52; 8225,000; 2255,000;12518,000;58,17013
1239,82; 8546,000; 2660,000;12731,000;58,44504
1244,12; 8195,000; 2513,000;12276,000;58,19932
1248,41; 8447,000; 2839,000;12479,000;58,17427
1252,70; 7607,000; 2157,000;11531,000;58,13953
1256,98; 7846,000; 2405,000;11723,000;58,39236
1261,26; 8267,000; 2898,000;12129,000;58,16271
1265,53; 7491,000; 2242,000;11284,000;58,05132
1269,80; 7629,000; 2393,000;11431,000;57,93317
1274,06; 7921,000; 2810,000;11639,000;57,88878
1278,32; 7607,000; 2550,000;11295,000;57,82733
1282,57; 7607,000; 2625,000;11256,000;57,72216
1286,82; 7389,000; 2467,000;11002,000;57,66842
1291,06; 7572,000; 2738,000;11125,000;57,63682
1295,30; 7482,000; 2653,000;11013,000;57,76316
1299,53; 7609,000; 2787,000;11181,000;57,44579
1303,76; 7357,000; 2600,000;10932,000;57,09313
1307,99; 7630,000; 2905,000;11203,000;56,94143
1312,20; 7464,000; 2833,000;11044,000;56,39995
1316,42; 6983,000; 2476,000;10478,000;56,32342
1320,63; 7006,000; 2579,000;10484,000;56,00253
1324,83; 6540,000; 2192,000; 9974,000;55,87253
1329,03; 6929,000; 2674,000;10257,000;56,11236
1333,23; 6674,000; 2468,000; 9986,000;55,94573
1337,42; 6915,000; 2764,000;10213,000;55,72560
1341,60; 6441,000; 2379,000; 9662,000;55,77372
1345,78; 6738,000; 2742,000; 9883,000;55,95855
1349,96; 6266,000; 2303,000; 9376,000;56,02997
1354,13; 6391,000; 2510,000; 9449,000;55,93025
1358,29; 6167,000; 2356,000; 9196,000;55,71637
1362,46; 6460,000; 2743,000; 9351,000;56,25000
1366,61; 6353,000; 2731,000; 9181,000;56,15504
1370,76; 5947,000; 2399,000; 8708,000;56,23712
1374,91; 6417,000; 2995,000; 9036,000;56,64625
1379,05; 5687,000; 2366,000; 8178,000;57,14040
1383,18; 6552,000; 3283,000; 9009,000;57,09046
1387,32; 5610,000; 2319,000; 8098,000;56,94757
1391,44; 5631,000; 2327,000; 8096,000;57,27162
1395,56; 6438,000; 3137,000; 8942,000;56,86477
1399,68; 5479,000; 2135,000; 8073,000;56,31526
1403,79; 5702,000; 2329,000; 8366,000;55,87212
1407,90; 5605,000; 2263,000; 8269,000;55,64436
1412,00; 5727,000; 2365,000; 8420,000;55,52436
1416,10; 6059,000; 2718,000; 8761,000;55,28711
1420,19; 5757,000; 2409,000; 8400,000;55,88383
1424,27; 5927,000; 2632,000; 8589,000;55,31308
1428,36; 5976,000; 2719,000; 8620,000;55,19403
1432,43; 6083,000; 2846,000; 8708,000;55,22006
1436,50; 5751,000; 2533,000; 8354,000;55,28260
1440,57; 5918,000; 2732,000; 8530,000;54,94998
1444,63; 5533,000; 2366,000; 8116,000;55,07826
1448,69; 5290,000; 2161,000; 7844,000;55,05895
1452,74; 5597,000; 2447,000; 8116,000;55,56536
1456,79; 5349,000; 2238,000; 7867,000;55,26737
1460,83; 5467,000; 2400,000; 7935,000;55,41102
1464,87; 5738,000; 2691,000; 8180,000;55,51102
1468,90; 5693,000; 2650,000; 8132,000;55,50894
1472,93; 5596,000; 2603,000; 7978,000;55,68372
1476,95; 5576,000; 2611,000; 7981,000;55,21415
1480,96; 5263,000; 2298,000; 7601,000;55,91175
1484,98; 5445,000; 2481,000; 7828,000;55,43295
1488,98; 5534,000; 2611,000; 7844,000;55,85706
1492,98; 5590,000; 2725,000; 7881,000;55,56633
1496,98; 5196,000; 2361,000; 7476,000;55,42522
1500,97; 5583,000; 2789,000; 7826,000;55,46953
1504,96; 4934,000; 2172,000; 7164,000;55,32853
1508,94; 5527,000; 2773,000; 7774,000;55,06899
1512,92; 5107,000; 2382,000; 7342,000;54,93952
1516,89; 5212,000; 2502,000; 7430,000;54,99188
1520,85; 5089,000; 2384,000; 7295,000;55,08043
1524,81; 5643,000; 2962,000; 7824,000;55,14192
1528,77; 4989,000; 2324,000; 7205,000;54,59947
1532,72; 5081,000; 2407,000; 7255,000;55,15677
1536,67; 5538,000; 2883,000; 7677,000;55,38173
1540,61; 4984,000; 2376,000; 7009,000;56,29182
1544,54; 5335,000; 2727,000; 7388,000;55,95366
1548,47; 4746,000; 2158,000; 6748,000;56,38344
1552,40; 5152,000; 2615,000; 7147,000;55,97970
1556,32; 5111,000; 2575,000; 7088,000;56,19322
1560,23; 4952,000; 2484,000; 6850,000;56,52771
1564,15; 5025,000; 2555,000; 6922,000;56,56057
1568,05; 4833,000; 2399,000; 6734,000;56,14764
1571,95; 5106,000; 2725,000; 6961,000;56,20869
1575,84; 4785,000; 2347,000; 6574,000;57,67684
1579,73; 4950,000; 2624,000; 6795,000;55,76600
1583,62; 4894,000; 2543,000; 6679,000;56,84236
1587,50; 4570,000; 2249,000; 6365,000;56,38970
1591,37; 5099,000; 2806,000; 6870,000;56,42224
1595,24; 4800,000; 2531,000; 6521,000;56,86717
1599,11; 4487,000; 2244,000; 6219,000;56,42767
1602,96; 4569,000; 2333,000; 6225,000;57,45118
1606,82; 4437,000; 2230,000; 6074,000;57,41415
1610,67; 4683,000; 2503,000; 6261,000;58,00958
1614,51; 4814,000; 2689,000; 6400,000;57,26219
1618,35; 4387,000; 2276,000; 5907,000;58,13825
1622,18; 4554,000; 2494,000; 6062,000;57,73543
1626,01; 4534,000; 2495,000; 6059,000;57,21100
1629,83; 4573,000; 2571,000; 6064,000;57,31463
1633,65; 4667,000; 2670,000; 6118,000;57,91763
1637,46; 4375,000; 2400,000; 5785,000;58,34564
1641,27; 4303,000; 2327,000; 5711,000;58,39243
1645,07; 4285,000; 2289,000; 5633,000;59,68900
1648,86; 4274,000; 2319,000; 5590,000;59,76766
1652,66; 4209,000; 2259,000; 5557,000;59,12674
1656,44; 4269,000; 2366,000; 5600,000;58,84354
1660,22; 4399,000; 2535,000; 5719,000;58,54271
1664,00; 4532,000; 2684,000; 5850,000;58,37018
1667,77; 4243,000; 2449,000; 5553,000;57,79639
1671,53; 4196,000; 2433,000; 5436,000;58,70796
1675,29; 4022,000; 2285,000; 5318,000;57,27003
1679,05; 4281,000; 2563,000; 5561,000;57,30487
1682,80; 4146,000; 2442,000; 5389,000;57,82151
1686,54; 4389,000; 2708,000; 5604,000;58,04558
1690,28; 4354,000; 2658,000; 5556,000;58,52312
1694,01; 3943,000; 2248,000; 5057,000;60,34176
1697,74; 4048,000; 2391,000; 5182,000;59,36940
1701,46; 4277,000; 2601,000; 5350,000;60,96762
1705,18; 3954,000; 2310,000; 4996,000;61,20625
1708,89; 3867,000; 2233,000; 4884,000;61,63712
1712,60; 4221,000; 2612,000; 5224,000;61,60031
1716,30; 4226,000; 2623,000; 5179,000;62,71518
1720,00; 4242,000; 2660,000; 5201,000;62,25895
1723,69; 4169,000; 2563,000; 5072,000;64,00957
1727,38; 3777,000; 2204,000; 4712,000;62,71930
1731,06; 4098,000; 2496,000; 4968,000;64,80583
1734,73; 4037,000; 2459,000; 4917,000;64,19854
1738,40; 3875,000; 2292,000; 4734,000;64,82391
1742,07; 4218,000; 2663,000; 5138,000;62,82828
1745,73; 3874,000; 2312,000; 4760,000;63,80719
1749,38; 4113,000; 2592,000; 5014,000;62,79934
1753,03; 4192,000; 2685,000; 5008,000;64,87301
1756,67; 3945,000; 2466,000; 4783,000;63,83254
1760,31; 4077,000; 2637,000; 4863,000;64,69003
1763,94; 4017,000; 2564,000; 4778,000;65,62782
1767,57; 3984,000; 2562,000; 4713,000;66,10879
1771,19; 3860,000; 2442,000; 4522,000;68,17308
1774,81; 3990,000; 2565,000; 4651,000;68,31256
1778,42; 3974,000; 2584,000; 4617,000;68,37186
1782,03; 3820,000; 2412,000; 4445,000;69,25726
1785,63; 3746,000; 2341,000; 4330,000;70,63851
1789,22; 3816,000; 2405,000; 4385,000;71,26263
1792,81; 3667,000; 2278,000; 4185,000;72,83692
1796,40; 3559,000; 2182,000; 4076,000;72,70327
1799,98; 4094,000; 2714,000; 4598,000;73,24841
1803,55; 3839,000; 2460,000; 4327,000;73,86181
1807,12; 3692,000; 2348,000; 4172,000;73,68421
1810,68; 4319,000; 2987,000; 4794,000;73,71334
1814,24; 3579,000; 2255,000; 4030,000;74,59155
1817,79; 4069,000; 2759,000; 4513,000;74,68643
1821,34; 4219,000; 2932,000; 4641,000;75,30720
1824,88; 3612,000; 2324,000; 4030,000;75,49824
1828,41; 3881,000; 2587,000; 4283,000;76,29717
1831,94; 3701,000; 2421,000; 4081,000;77,10843
1835,47; 3496,000; 2217,000; 3864,000;77,65634
1838,99; 3859,000; 2598,000; 4226,000;77,45700
1842,50; 3674,000; 2418,000; 4025,000;78,15806
1846,01; 3578,000; 2307,000; 3885,000;80,54499
1849,51; 3386,000; 2156,000; 3694,000;79,97399
1853,01; 3476,000; 2262,000; 3774,000;80,29101
1856,50; 4265,000; 3049,000; 4559,000;80,52980
1859,99; 3395,000; 2201,000; 3668,000;81,39059
1863,47; 3735,000; 2547,000; 3994,000;82,10090
1866,94; 3481,000; 2314,000; 3711,000;83,53615
1870,41; 3888,000; 2737,000; 4119,000;83,28509
1873,88; 3710,000; 2520,000; 3897,000;86,41975
1877,34; 3985,000; 2792,000; 4172,000;86,44928
1880,79; 3883,000; 2713,000; 4037,000;88,36858
1884,24; 3848,000; 2665,000; 3995,000;88,94737
1887,68; 3474,000; 2302,000; 3591,000;90,92320
1891,12; 3307,000; 2172,000; 3462,000;87,98450
1894,55; 3418,000; 2296,000; 3582,000;87,24728
1897,98; 3715,000; 2564,000; 3828,000;91,06013
1901,40; 3444,000; 2344,000; 3603,000;87,37093

