KL919_ABS_FCR_3
Integration time [ms]: 100,000
Averaging Nr. [scans]: 1
Smoothing Nr. [pixels]: 0
Data measured with spectrometer [name]: 1204091U1
Wave   ;Sample   ;Dark     ;Reference;Reflectance
[nm]   ;[counts] ;[counts] ;[counts] ;[%]

1014,48; 6112,000; 2159,000; 6686,000;87,32052
1019,01; 6495,000; 2263,000; 7134,000;86,88154
1023,54; 6903,000; 2460,000; 7582,000;86,74346
1028,07; 6995,000; 2357,000; 7740,000;86,16013
1032,59; 7140,000; 2222,000; 7947,000;85,90393
1037,10; 7526,000; 2251,000; 8409,000;85,66093
1041,62; 7835,000; 2335,000; 8775,000;85,40373
1046,12; 8541,000; 2824,000; 9555,000;84,93537
1050,62; 8177,000; 2300,000; 9240,000;84,68300
1055,12; 8282,000; 2181,000; 9387,000;84,66556
1059,62; 8183,000; 2009,000; 9358,000;84,01143
1064,10; 8785,000; 2401,000;10031,000;83,66972
1068,59; 9114,000; 2570,000;10411,000;83,45874
1073,07; 9140,000; 2356,000;10516,000;83,13725
1077,54; 9201,000; 2278,000;10631,000;82,88040
1082,01; 9541,000; 2486,000;11025,000;82,62092
1086,48; 9768,000; 2488,000;11325,000;82,38090
1090,94; 9387,000; 2081,000;10975,000;82,14527
1095,39;10604,000; 3026,000;12290,000;81,80052
1099,85;10126,000; 2345,000;11921,000;81,25522
1104,29;10368,000; 2403,000;12226,000;81,08521
1108,73;10136,000; 2060,000;12064,000;80,72771
1113,17;10909,000; 2768,000;12897,000;80,37319
1117,61;10610,000; 2351,000;12709,000;79,73547
1122,03;11025,000; 2714,000;13178,000;79,42469
1126,46;10592,000; 2237,000;12873,000;78,55397
1130,88;10508,000; 2154,000;12946,000;77,40919
1135,29;11050,000; 2780,000;13624,000;76,26337
1139,70;10463,000; 2109,000;13204,000;75,29518
1144,11;10550,000; 2181,000;13375,000;74,76327
1148,51;10716,000; 2244,000;13522,000;75,11970
1152,90;10918,000; 2301,000;13707,000;75,54796
1157,29;10713,000; 2006,000;13470,000;75,95080
1161,68;11027,000; 2262,000;13824,000;75,80868
1166,06;10975,000; 2248,000;13803,000;75,52575
1170,44;11104,000; 2494,000;13961,000;75,08503
1174,81;10575,000; 2196,000;13387,000;74,87267
1179,18;10684,000; 2339,000;13505,000;74,73581
1183,54;10703,000; 2531,000;13570,000;74,02844
1187,90;10629,000; 2580,000;13523,000;73,55387
1192,25;10262,000; 2379,000;13172,000;73,03808
1196,60; 9965,000; 2222,000;12903,000;72,49321
1200,94;10076,000; 2485,000;12994,000;72,23332
1205,28; 9715,000; 2285,000;12529,000;72,53026
1209,62; 9820,000; 2418,000;12639,000;72,41953
1213,95; 9877,000; 2543,000;12596,000;72,95335
1218,27; 9410,000; 2113,000;12057,000;73,38093
1222,59; 9854,000; 2762,000;12319,000;74,20739
1226,91; 9613,000; 2482,000;12036,000;74,63889
1231,22; 9272,000; 2269,000;11621,000;74,88238
1235,52; 8836,000; 1935,000;11126,000;75,08432
1239,82; 9161,000; 2360,000;11354,000;75,61708
1244,12; 8805,000; 2191,000;10953,000;75,48505
1248,41; 9050,000; 2519,000;11152,000;75,65157
1252,70; 8164,000; 1808,000;10246,000;75,32591
1256,98; 8364,000; 2069,000;10481,000;74,83357
1261,26; 8802,000; 2578,000;10887,000;74,90673
1265,53; 7998,000; 1911,000;10040,000;74,88006
1269,80; 8139,000; 2085,000;10196,000;74,63938
1274,06; 8416,000; 2472,000;10429,000;74,70152
1278,32; 8100,000; 2246,000;10116,000;74,38374
1282,57; 8105,000; 2315,000;10115,000;74,23077
1286,82; 7873,000; 2159,000; 9878,000;74,02513
1291,06; 8005,000; 2434,000; 9974,000;73,88594
1295,30; 7894,000; 2354,000; 9886,000;73,55284
1299,53; 8034,000; 2461,000;10030,000;73,62928
1303,76; 7810,000; 2315,000; 9771,000;73,69903
1307,99; 8082,000; 2633,000;10041,000;73,55562
1312,20; 7926,000; 2539,000; 9875,000;73,43239
1316,42; 7437,000; 2175,000; 9339,000;73,45059
1320,63; 7415,000; 2246,000; 9303,000;73,24642
1324,83; 6969,000; 1875,000; 8811,000;73,44291
1329,03; 7341,000; 2294,000; 9122,000;73,91623
1333,23; 7031,000; 2137,000; 8853,000;72,87076
1337,42; 7302,000; 2453,000; 9095,000;73,00512
1341,60; 6761,000; 2063,000; 8573,000;72,16590
1345,78; 6998,000; 2407,000; 8779,000;72,04959
1349,96; 6510,000; 1977,000; 8295,000;71,74739
1354,13; 6627,000; 2218,000; 8428,000;70,99839
1358,29; 6373,000; 2040,000; 8181,000;70,55854
1362,46; 6572,000; 2455,000; 8370,000;69,60270
1366,61; 6421,000; 2409,000; 8197,000;69,31583
1370,76; 5989,000; 2106,000; 7751,000;68,78654
1374,91; 6413,000; 2653,000; 8072,000;69,38550
1379,05; 5610,000; 2056,000; 7236,000;68,61004
1383,18; 6438,000; 2983,000; 8057,000;68,09223
1387,32; 5512,000; 2042,000; 7174,000;67,61496
1391,44; 5468,000; 2029,000; 7155,000;67,08935
1395,56; 6280,000; 2838,000; 7994,000;66,75718
1399,68; 5343,000; 1864,000; 7116,000;66,24143
1403,79; 5567,000; 2045,000; 7382,000;65,99213
1407,90; 5448,000; 1975,000; 7279,000;65,47888
1412,00; 5566,000; 2064,000; 7433,000;65,22630
1416,10; 5928,000; 2407,000; 7775,000;65,59240
1420,19; 5607,000; 2106,000; 7422,000;65,85779
1424,27; 5799,000; 2292,000; 7597,000;66,10745
1428,36; 5824,000; 2373,000; 7627,000;65,68329
1432,43; 5975,000; 2538,000; 7760,000;65,81769
1436,50; 5626,000; 2221,000; 7397,000;65,78439
1440,57; 5767,000; 2379,000; 7559,000;65,40541
1444,63; 5397,000; 2054,000; 7190,000;65,08956
1448,69; 5124,000; 1832,000; 6909,000;64,84144
1452,74; 5385,000; 2149,000; 7178,000;64,34679
1456,79; 5105,000; 1924,000; 6934,000;63,49301
1460,83; 5175,000; 2085,000; 7017,000;62,65207
1464,87; 5426,000; 2389,000; 7273,000;62,18264
1468,90; 5388,000; 2366,000; 7250,000;61,87551
1472,93; 5260,000; 2274,000; 7073,000;62,22130
1476,95; 5282,000; 2304,000; 7073,000;62,44496
1480,96; 4997,000; 2026,000; 6740,000;63,02503
1484,98; 5225,000; 2214,000; 6916,000;64,03658
1488,98; 5312,000; 2321,000; 6981,000;64,18455
1492,98; 5360,000; 2415,000; 6974,000;64,59750
1496,98; 5011,000; 2066,000; 6594,000;65,03975
1500,97; 5426,000; 2503,000; 6934,000;65,96705
1504,96; 4788,000; 1869,000; 6310,000;65,72844
1508,94; 5364,000; 2442,000; 6874,000;65,92960
1512,92; 4942,000; 2047,000; 6459,000;65,61650
1516,89; 5055,000; 2181,000; 6559,000;65,64641
1520,85; 4899,000; 2039,000; 6397,000;65,62643
1524,81; 5458,000; 2622,000; 6923,000;65,93815
1528,77; 4852,000; 1993,000; 6335,000;65,84523
1532,72; 4893,000; 2083,000; 6385,000;65,31846
1536,67; 5345,000; 2574,000; 6827,000;65,15401
1540,61; 4725,000; 2053,000; 6158,000;65,09135
1544,54; 5111,000; 2397,000; 6559,000;65,20903
1548,47; 4504,000; 1870,000; 5963,000;64,35377
1552,40; 4912,000; 2311,000; 6340,000;64,55696
1556,32; 4882,000; 2289,000; 6299,000;64,66334
1560,23; 4704,000; 2216,000; 6063,000;64,67377
1564,15; 4755,000; 2266,000; 6123,000;64,53202
1568,05; 4582,000; 2111,000; 5937,000;64,58442
1571,95; 4858,000; 2431,000; 6174,000;64,84104
1575,84; 4481,000; 2066,000; 5767,000;65,25263
1579,73; 4726,000; 2334,000; 5973,000;65,73234
1583,62; 4637,000; 2251,000; 5853,000;66,24098
1587,50; 4317,000; 1973,000; 5552,000;65,49315
1591,37; 4827,000; 2501,000; 6051,000;65,52113
1595,24; 4496,000; 2195,000; 5695,000;65,74286
1599,11; 4187,000; 1935,000; 5426,000;64,50874
1602,96; 4244,000; 2027,000; 5422,000;65,30191
1606,82; 4088,000; 1926,000; 5276,000;64,53731
1610,67; 4307,000; 2202,000; 5507,000;63,69138
1614,51; 4428,000; 2375,000; 5635,000;62,97546
1618,35; 3933,000; 1955,000; 5143,000;62,04517
1622,18; 4100,000; 2163,000; 5307,000;61,60941
1626,01; 4066,000; 2191,000; 5286,000;60,58158
1629,83; 4021,000; 2237,000; 5309,000;58,07292
1633,65; 4106,000; 2363,000; 5411,000;57,18504
1637,46; 3758,000; 2065,000; 5041,000;56,88844
1641,27; 3670,000; 2043,000; 4995,000;55,11518
1645,07; 3639,000; 2025,000; 4923,000;55,69358
1648,86; 3596,000; 2022,000; 4872,000;55,22807
1652,66; 3519,000; 2009,000; 4849,000;53,16901
1656,44; 3557,000; 2080,000; 4866,000;53,01508
1660,22; 3661,000; 2279,000; 5011,000;50,58565
1664,00; 3723,000; 2386,000; 5119,000;48,92060
1667,77; 3432,000; 2147,000; 4820,000;48,07333
1671,53; 3295,000; 2096,000; 4676,000;46,47287
1675,29; 3170,000; 1956,000; 4597,000;45,96744
1679,05; 3450,000; 2235,000; 4841,000;46,62318
1682,80; 3281,000; 2121,000; 4673,000;45,45455
1686,54; 3544,000; 2345,000; 4882,000;47,26054
1690,28; 3519,000; 2330,000; 4848,000;47,22002
1694,01; 3091,000; 1942,000; 4390,000;46,93627
1697,74; 3219,000; 2079,000; 4510,000;46,89428
1701,46; 3426,000; 2282,000; 4676,000;47,78613
1705,18; 3112,000; 2006,000; 4351,000;47,16418
1708,89; 3005,000; 1911,000; 4242,000;46,93265
1712,60; 3351,000; 2253,000; 4569,000;47,40933
1716,30; 3365,000; 2295,000; 4547,000;47,51332
1720,00; 3403,000; 2337,000; 4572,000;47,69575
1723,69; 3320,000; 2261,000; 4469,000;47,96196
1727,38; 2950,000; 1905,000; 4079,000;48,06808
1731,06; 3253,000; 2204,000; 4366,000;48,51989
1734,73; 3238,000; 2153,000; 4269,000;51,27599
1738,40; 3093,000; 1998,000; 4086,000;52,44253
1742,07; 3494,000; 2398,000; 4492,000;52,34002
1745,73; 3107,000; 2036,000; 4113,000;51,56476
1749,38; 3370,000; 2316,000; 4333,000;52,25583
1753,03; 3401,000; 2360,000; 4336,000;52,68219
1756,67; 3178,000; 2169,000; 4109,000;52,01031
1760,31; 3317,000; 2287,000; 4202,000;53,78590
1763,94; 3269,000; 2226,000; 4114,000;55,24364
1767,57; 3221,000; 2202,000; 4056,000;54,96224
1771,19; 3094,000; 2090,000; 3874,000;56,27803
1774,81; 3237,000; 2248,000; 4032,000;55,43722
1778,42; 3252,000; 2269,000; 4027,000;55,91581
1782,03; 3066,000; 2095,000; 3823,000;56,19213
1785,63; 3000,000; 2035,000; 3722,000;57,20213
1789,22; 3053,000; 2111,000; 3791,000;56,07143
1792,81; 2902,000; 1992,000; 3582,000;57,23270
1796,40; 2810,000; 1886,000; 3487,000;57,71393
1799,98; 3365,000; 2449,000; 4025,000;58,12183
1803,55; 3088,000; 2183,000; 3731,000;58,46253
1807,12; 2956,000; 2061,000; 3579,000;58,95916
1810,68; 3589,000; 2694,000; 4197,000;59,54757
1814,24; 2833,000; 1955,000; 3431,000;59,48509
1817,79; 3352,000; 2464,000; 3918,000;61,07290
1821,34; 3508,000; 2605,000; 4045,000;62,70833
1824,88; 2914,000; 2018,000; 3427,000;63,59120
1828,41; 3168,000; 2289,000; 3672,000;63,55748
1831,94; 3028,000; 2125,000; 3487,000;66,29956
1835,47; 2810,000; 1906,000; 3243,000;67,61406
1838,99; 3180,000; 2296,000; 3612,000;67,17325
1842,50; 3011,000; 2133,000; 3433,000;67,53846
1846,01; 2872,000; 2020,000; 3270,000;68,16000
1849,51; 2684,000; 1814,000; 3091,000;68,12843
1853,01; 2755,000; 1929,000; 3201,000;64,93711
1856,50; 3554,000; 2700,000; 3984,000;66,51090
1859,99; 2659,000; 1862,000; 3058,000;66,63880
1863,47; 3022,000; 2216,000; 3413,000;67,33500
1866,94; 2774,000; 2005,000; 3183,000;65,28014
1870,41; 3187,000; 2432,000; 3602,000;64,52991
1873,88; 2981,000; 2210,000; 3354,000;67,39510
1877,34; 3267,000; 2493,000; 3625,000;68,37456
1880,79; 3153,000; 2396,000; 3490,000;69,19561
1884,24; 3121,000; 2396,000; 3479,000;66,94367
1887,68; 2751,000; 2020,000; 3039,000;71,73700
1891,12; 2622,000; 1891,000; 2931,000;70,28846
1894,55; 2731,000; 2022,000; 3034,000;70,05929
1897,98; 2986,000; 2272,000; 3275,000;71,18644
1901,40; 2736,000; 2030,000; 3031,000;70,52947

