KL919_ABS_FCR_1
Integration time [ms]: 100,000
Averaging Nr. [scans]: 1
Smoothing Nr. [pixels]: 0
Data measured with spectrometer [name]: 1204091U1
Wave   ;Sample   ;Dark     ;Reference;Reflectance
[nm]   ;[counts] ;[counts] ;[counts] ;[%]

1014,48; 8251,000; 2159,000; 6686,000;134,57036
1019,01; 8756,000; 2263,000; 7134,000;133,29912
1023,54; 9277,000; 2460,000; 7582,000;133,09254
1028,07; 9462,000; 2357,000; 7740,000;131,98960
1032,59; 9719,000; 2222,000; 7947,000;130,95197
1037,10;10279,000; 2251,000; 8409,000;130,36700
1041,62;10690,000; 2335,000; 8775,000;129,73602
1046,12;11528,000; 2824,000; 9555,000;129,31214
1050,62;11249,000; 2300,000; 9240,000;128,94813
1055,12;11433,000; 2181,000; 9387,000;128,39301
1059,62;11409,000; 2009,000; 9358,000;127,90856
1064,10;12147,000; 2401,000;10031,000;127,73263
1068,59;12540,000; 2570,000;10411,000;127,15215
1073,07;12724,000; 2356,000;10516,000;127,05882
1077,54;12852,000; 2278,000;10631,000;126,58925
1082,01;13328,000; 2486,000;11025,000;126,97037
1086,48;13649,000; 2488,000;11325,000;126,29852
1090,94;13334,000; 2081,000;10975,000;126,52350
1095,39;14692,000; 3026,000;12290,000;125,92832
1099,85;14354,000; 2345,000;11921,000;125,40727
1104,29;14672,000; 2403,000;12226,000;124,90074
1108,73;14572,000; 2060,000;12064,000;125,06997
1113,17;15375,000; 2768,000;12897,000;124,46441
1117,61;15182,000; 2351,000;12709,000;123,87527
1122,03;15637,000; 2714,000;13178,000;123,49962
1126,46;15310,000; 2237,000;12873,000;122,91275
1130,88;15280,000; 2154,000;12946,000;121,62713
1135,29;15893,000; 2780,000;13624,000;120,92401
1139,70;15367,000; 2109,000;13204,000;119,49527
1144,11;15496,000; 2181,000;13375,000;118,94765
1148,51;15705,000; 2244,000;13522,000;119,35627
1152,90;15908,000; 2301,000;13707,000;119,29686
1157,29;15782,000; 2006,000;13470,000;120,16748
1161,68;16125,000; 2262,000;13824,000;119,90140
1166,06;16070,000; 2248,000;13803,000;119,61921
1170,44;16186,000; 2494,000;13961,000;119,40351
1174,81;15536,000; 2196,000;13387,000;119,20293
1179,18;15647,000; 2339,000;13505,000;119,18323
1183,54;15682,000; 2531,000;13570,000;119,13217
1187,90;15569,000; 2580,000;13523,000;118,69688
1192,25;15155,000; 2379,000;13172,000;118,37302
1196,60;14824,000; 2222,000;12903,000;117,98521
1200,94;14925,000; 2485,000;12994,000;118,37473
1205,28;14487,000; 2285,000;12529,000;119,11363
1209,62;14622,000; 2418,000;12639,000;119,40123
1213,95;14645,000; 2543,000;12596,000;120,38198
1218,27;14182,000; 2113,000;12057,000;121,36967
1222,59;14414,000; 2762,000;12319,000;121,92110
1226,91;14149,000; 2482,000;12036,000;122,11639
1231,22;13791,000; 2269,000;11621,000;123,20359
1235,52;13326,000; 1935,000;11126,000;123,93646
1239,82;13543,000; 2360,000;11354,000;124,33845
1244,12;13143,000; 2191,000;10953,000;124,99429
1248,41;13384,000; 2519,000;11152,000;125,85428
1252,70;12461,000; 1808,000;10246,000;126,25030
1256,98;12707,000; 2069,000;10481,000;126,46220
1261,26;13169,000; 2578,000;10887,000;127,46420
1265,53;12303,000; 1911,000;10040,000;127,83860
1269,80;12510,000; 2085,000;10196,000;128,52916
1274,06;12730,000; 2472,000;10429,000;128,91793
1278,32;12423,000; 2246,000;10116,000;129,31385
1282,57;12414,000; 2315,000;10115,000;129,47436
1286,82;12107,000; 2159,000; 9878,000;128,87680
1291,06;12305,000; 2434,000; 9974,000;130,91512
1295,30;12215,000; 2354,000; 9886,000;130,92140
1299,53;12379,000; 2461,000;10030,000;131,03448
1303,76;12181,000; 2315,000; 9771,000;132,32296
1307,99;12499,000; 2633,000;10041,000;133,18035
1312,20;12322,000; 2539,000; 9875,000;133,35605
1316,42;11739,000; 2175,000; 9339,000;133,50084
1320,63;11679,000; 2246,000; 9303,000;133,66870
1324,83;11138,000; 1875,000; 8811,000;133,54960
1329,03;11367,000; 2294,000; 9122,000;132,87932
1333,23;11073,000; 2137,000; 8853,000;133,05539
1337,42;11359,000; 2453,000; 9095,000;134,08612
1341,60;10745,000; 2063,000; 8573,000;133,36406
1345,78;10977,000; 2407,000; 8779,000;134,49466
1349,96;10435,000; 1977,000; 8295,000;133,87148
1354,13;10522,000; 2218,000; 8428,000;133,71981
1358,29;10257,000; 2040,000; 8181,000;133,80557
1362,46;10394,000; 2455,000; 8370,000;134,21809
1366,61;10188,000; 2409,000; 8197,000;134,39876
1370,76; 9671,000; 2106,000; 7751,000;134,01240
1374,91; 9927,000; 2653,000; 8072,000;134,23141
1379,05; 9014,000; 2056,000; 7236,000;134,32432
1383,18; 9749,000; 2983,000; 8057,000;133,34647
1387,32; 8870,000; 2042,000; 7174,000;133,04754
1391,44; 8855,000; 2029,000; 7155,000;133,16426
1395,56; 9639,000; 2838,000; 7994,000;131,90458
1399,68; 8835,000; 1864,000; 7116,000;132,73039
1403,79; 9006,000; 2045,000; 7382,000;130,42908
1407,90; 8889,000; 1975,000; 7279,000;130,35445
1412,00; 8979,000; 2064,000; 7433,000;128,79493
1416,10; 9323,000; 2407,000; 7775,000;128,83756
1420,19; 8999,000; 2106,000; 7422,000;129,66516
1424,27; 9133,000; 2292,000; 7597,000;128,95382
1428,36; 9194,000; 2373,000; 7627,000;129,82490
1432,43; 9261,000; 2538,000; 7760,000;128,74378
1436,50; 8923,000; 2221,000; 7397,000;129,48223
1440,57; 9075,000; 2379,000; 7559,000;129,26641
1444,63; 8648,000; 2054,000; 7190,000;128,38785
1448,69; 8423,000; 1832,000; 6909,000;129,82076
1452,74; 8682,000; 2149,000; 7178,000;129,90654
1456,79; 8321,000; 1924,000; 6934,000;127,68463
1460,83; 8357,000; 2085,000; 7017,000;127,16951
1464,87; 8654,000; 2389,000; 7273,000;128,27600
1468,90; 8593,000; 2366,000; 7250,000;127,49795
1472,93; 8389,000; 2274,000; 7073,000;127,42238
1476,95; 8426,000; 2304,000; 7073,000;128,37073
1480,96; 8158,000; 2026,000; 6740,000;130,08061
1484,98; 8377,000; 2214,000; 6916,000;131,07188
1488,98; 8282,000; 2321,000; 6981,000;127,91845
1492,98; 8354,000; 2415,000; 6974,000;130,26980
1496,98; 8005,000; 2066,000; 6594,000;131,16166
1500,97; 8271,000; 2503,000; 6934,000;130,17378
1504,96; 7718,000; 1869,000; 6310,000;131,70457
1508,94; 8225,000; 2442,000; 6874,000;130,48285
1512,92; 7809,000; 2047,000; 6459,000;130,59837
1516,89; 7862,000; 2181,000; 6559,000;129,76245
1520,85; 7777,000; 2039,000; 6397,000;131,66590
1524,81; 8305,000; 2622,000; 6923,000;132,13206
1528,77; 7670,000; 1993,000; 6335,000;130,74620
1532,72; 7690,000; 2083,000; 6385,000;130,33473
1536,67; 8091,000; 2574,000; 6827,000;129,72020
1540,61; 7430,000; 2053,000; 6158,000;130,98660
1544,54; 7814,000; 2397,000; 6559,000;130,15377
1548,47; 7265,000; 1870,000; 5963,000;131,81041
1552,40; 7543,000; 2311,000; 6340,000;129,85853
1556,32; 7599,000; 2289,000; 6299,000;132,41895
1560,23; 7279,000; 2216,000; 6063,000;131,60905
1564,15; 7391,000; 2266,000; 6123,000;132,87529
1568,05; 7136,000; 2111,000; 5937,000;131,33821
1571,95; 7423,000; 2431,000; 6174,000;133,36896
1575,84; 7051,000; 2066,000; 5767,000;134,69333
1579,73; 7163,000; 2334,000; 5973,000;132,70129
1583,62; 7055,000; 2251,000; 5853,000;133,37035
1587,50; 6694,000; 1973,000; 5552,000;131,90835
1591,37; 7199,000; 2501,000; 6051,000;132,33803
1595,24; 6807,000; 2195,000; 5695,000;131,77143
1599,11; 6529,000; 1935,000; 5426,000;131,59553
1602,96; 6519,000; 2027,000; 5422,000;132,31222
1606,82; 6411,000; 1926,000; 5276,000;133,88060
1610,67; 6591,000; 2202,000; 5507,000;132,79879
1614,51; 6719,000; 2375,000; 5635,000;133,25153
1618,35; 6132,000; 1955,000; 5143,000;131,02258
1622,18; 6213,000; 2163,000; 5307,000;128,81679
1626,01; 6219,000; 2191,000; 5286,000;130,14540
1629,83; 6163,000; 2237,000; 5309,000;127,79948
1633,65; 6229,000; 2363,000; 5411,000;126,83727
1637,46; 5858,000; 2065,000; 5041,000;127,45296
1641,27; 5818,000; 2043,000; 4995,000;127,87940
1645,07; 5689,000; 2025,000; 4923,000;126,43202
1648,86; 5563,000; 2022,000; 4872,000;124,24561
1652,66; 5524,000; 2009,000; 4849,000;123,76761
1656,44; 5519,000; 2080,000; 4866,000;123,43862
1660,22; 5639,000; 2279,000; 5011,000;122,98682
1664,00; 5668,000; 2386,000; 5119,000;120,08782
1667,77; 5311,000; 2147,000; 4820,000;118,36887
1671,53; 5098,000; 2096,000; 4676,000;116,35659
1675,29; 4959,000; 1956,000; 4597,000;113,70693
1679,05; 5235,000; 2235,000; 4841,000;115,11896
1682,80; 5052,000; 2121,000; 4673,000;114,85110
1686,54; 5271,000; 2345,000; 4882,000;115,33307
1690,28; 5207,000; 2330,000; 4848,000;114,25735
1694,01; 4749,000; 1942,000; 4390,000;114,66503
1697,74; 4903,000; 2079,000; 4510,000;116,16619
1701,46; 5064,000; 2282,000; 4676,000;116,20718
1705,18; 4789,000; 2006,000; 4351,000;118,67804
1708,89; 4619,000; 1911,000; 4242,000;116,17332
1712,60; 4992,000; 2253,000; 4569,000;118,26425
1716,30; 4975,000; 2295,000; 4547,000;119,00533
1720,00; 4954,000; 2337,000; 4572,000;117,09172
1723,69; 4890,000; 2261,000; 4469,000;119,06703
1727,38; 4587,000; 1905,000; 4079,000;123,36707
1731,06; 4850,000; 2204,000; 4366,000;122,38668
1734,73; 4797,000; 2153,000; 4269,000;124,95274
1738,40; 4625,000; 1998,000; 4086,000;125,81418
1742,07; 4999,000; 2398,000; 4492,000;124,21203
1745,73; 4639,000; 2036,000; 4113,000;125,32499
1749,38; 4807,000; 2316,000; 4333,000;123,50025
1753,03; 4826,000; 2360,000; 4336,000;124,79757
1756,67; 4560,000; 2169,000; 4109,000;123,24742
1760,31; 4679,000; 2287,000; 4202,000;124,90862
1763,94; 4621,000; 2226,000; 4114,000;126,85381
1767,57; 4531,000; 2202,000; 4056,000;125,62028
1771,19; 4367,000; 2090,000; 3874,000;127,63453
1774,81; 4526,000; 2248,000; 4032,000;127,69058
1778,42; 4483,000; 2269,000; 4027,000;125,93857
1782,03; 4296,000; 2095,000; 3823,000;127,37269
1785,63; 4179,000; 2035,000; 3722,000;127,08951
1789,22; 4187,000; 2111,000; 3791,000;123,57143
1792,81; 4063,000; 1992,000; 3582,000;130,25157
1796,40; 3949,000; 1886,000; 3487,000;128,85696
1799,98; 4522,000; 2449,000; 4025,000;131,53553
1803,55; 4241,000; 2183,000; 3731,000;132,94574
1807,12; 4159,000; 2061,000; 3579,000;138,20817
1810,68; 4775,000; 2694,000; 4197,000;138,45642
1814,24; 3972,000; 1955,000; 3431,000;136,65312
1817,79; 4397,000; 2464,000; 3918,000;132,94360
1821,34; 4510,000; 2605,000; 4045,000;132,29167
1824,88; 3949,000; 2018,000; 3427,000;137,04755
1828,41; 4221,000; 2289,000; 3672,000;139,69631
1831,94; 3998,000; 2125,000; 3487,000;137,51836
1835,47; 3732,000; 1906,000; 3243,000;136,57442
1838,99; 4091,000; 2296,000; 3612,000;136,39818
1842,50; 3932,000; 2133,000; 3433,000;138,38462
1846,01; 3756,000; 2020,000; 3270,000;138,88000
1849,51; 3575,000; 1814,000; 3091,000;137,90133
1853,01; 3660,000; 1929,000; 3201,000;136,08491
1856,50; 4491,000; 2700,000; 3984,000;139,48598
1859,99; 3652,000; 1862,000; 3058,000;149,66555
1863,47; 3946,000; 2216,000; 3413,000;144,52799
1866,94; 3651,000; 2005,000; 3183,000;139,72835
1870,41; 4096,000; 2432,000; 3602,000;142,22222
1873,88; 3873,000; 2210,000; 3354,000;145,36713
1877,34; 4162,000; 2493,000; 3625,000;147,43816
1880,79; 4013,000; 2396,000; 3490,000;147,80622
1884,24; 4009,000; 2396,000; 3479,000;148,93813
1887,68; 3590,000; 2020,000; 3039,000;154,07262
1891,12; 3454,000; 1891,000; 2931,000;150,28846
1894,55; 3541,000; 2022,000; 3034,000;150,09881
1897,98; 3802,000; 2272,000; 3275,000;152,54237
1901,40; 3530,000; 2030,000; 3031,000;149,85015

