reference_end_measurement
Integration time [ms]: 100,000
Averaging Nr. [scans]: 1
Smoothing Nr. [pixels]: 0
Data measured with spectrometer [name]: 1204091U1
Wave   ;Sample   ;Dark     ;Reference;Reflectance
[nm]   ;[counts] ;[counts] ;[counts] ;[%]

1014,48; 7812,000; 2453,000; 7571,000;104,70887
1019,01; 8277,000; 2571,000; 8072,000;103,72660
1023,54; 8772,000; 2760,000; 8557,000;103,70881
1028,07; 8951,000; 2645,000; 8728,000;103,66595
1032,59; 9143,000; 2542,000; 8976,000;102,59559
1037,10; 9586,000; 2552,000; 9493,000;101,33986
1041,62; 9968,000; 2645,000; 9874,000;101,30032
1046,12;10750,000; 3172,000;10692,000;100,77128
1050,62;10479,000; 2658,000;10426,000;100,68229
1055,12;10569,000; 2509,000;10544,000;100,31114
1059,62;10561,000; 2352,000;10536,000;100,30547
1064,10;11238,000; 2726,000;11217,000;100,24732
1068,59;11579,000; 2932,000;11644,000;99,25390
1073,07;11771,000; 2693,000;11791,000;99,78017
1077,54;11870,000; 2612,000;11902,000;99,65554
1082,01;12308,000; 2824,000;12356,000;99,49643
1086,48;12585,000; 2801,000;12632,000;99,52192
1090,94;12273,000; 2380,000;12314,000;99,58728
1095,39;13617,000; 3344,000;13669,000;99,49637
1099,85;13205,000; 2612,000;13309,000;99,02776
1104,29;13524,000; 2682,000;13632,000;99,01370
1108,73;13386,000; 2312,000;13510,000;98,89266
1113,17;14202,000; 3042,000;14359,000;98,61271
1117,61;14000,000; 2646,000;14198,000;98,28601
1122,03;14548,000; 3046,000;14722,000;98,50976
1126,46;14200,000; 2527,000;14400,000;98,31551
1130,88;14329,000; 2466,000;14495,000;98,62000
1135,29;15025,000; 3111,000;15219,000;98,39775
1139,70;14608,000; 2407,000;14793,000;98,50638
1144,11;14806,000; 2489,000;14967,000;98,70973
1148,51;14950,000; 2565,000;15172,000;98,23907
1152,90;15090,000; 2579,000;15293,000;98,40333
1157,29;14872,000; 2339,000;15111,000;98,12872
1161,68;15198,000; 2547,000;15452,000;98,03177
1166,06;15169,000; 2534,000;15403,000;98,18168
1170,44;15321,000; 2810,000;15520,000;98,43430
1174,81;14775,000; 2521,000;14948,000;98,60787
1179,18;14868,000; 2667,000;15071,000;98,36343
1183,54;14917,000; 2847,000;15116,000;98,37803
1187,90;14916,000; 2891,000;15091,000;98,56557
1192,25;14522,000; 2667,000;14694,000;98,56988
1196,60;14259,000; 2522,000;14434,000;98,53089
1200,94;14326,000; 2733,000;14497,000;98,54641
1205,28;13908,000; 2575,000;14032,000;98,91769
1209,62;13976,000; 2673,000;14073,000;99,14912
1213,95;13987,000; 2827,000;14061,000;99,34129
1218,27;13433,000; 2397,000;13503,000;99,36971
1222,59;13713,000; 3050,000;13756,000;99,59836
1226,91;13434,000; 2791,000;13486,000;99,51379
1231,22;12978,000; 2566,000;13022,000;99,57919
1235,52;12487,000; 2255,000;12518,000;99,69794
1239,82;12728,000; 2660,000;12731,000;99,97021
1244,12;12288,000; 2513,000;12276,000;100,12291
1248,41;12489,000; 2839,000;12479,000;100,10373
1252,70;11557,000; 2157,000;11531,000;100,27736
1256,98;11783,000; 2405,000;11723,000;100,64392
1261,26;12184,000; 2898,000;12129,000;100,59582
1265,53;11330,000; 2242,000;11284,000;100,50874
1269,80;11482,000; 2393,000;11431,000;100,56428
1274,06;11726,000; 2810,000;11639,000;100,98539
1278,32;11359,000; 2550,000;11295,000;100,73185
1282,57;11352,000; 2625,000;11256,000;101,11227
1286,82;11089,000; 2467,000;11002,000;101,01933
1291,06;11217,000; 2738,000;11125,000;101,09694
1295,30;11133,000; 2653,000;11013,000;101,43541
1299,53;11305,000; 2787,000;11181,000;101,47725
1303,76;11064,000; 2600,000;10932,000;101,58425
1307,99;11358,000; 2905,000;11203,000;101,86792
1312,20;11174,000; 2833,000;11044,000;101,58324
1316,42;10626,000; 2476,000;10478,000;101,84954
1320,63;10630,000; 2579,000;10484,000;101,84693
1324,83;10116,000; 2192,000; 9974,000;101,82472
1329,03;10449,000; 2674,000;10257,000;102,53198
1333,23;10133,000; 2468,000; 9986,000;101,95531
1337,42;10377,000; 2764,000;10213,000;102,20164
1341,60; 9837,000; 2379,000; 9662,000;102,40286
1345,78;10078,000; 2742,000; 9883,000;102,73071
1349,96; 9568,000; 2303,000; 9376,000;102,71455
1354,13; 9658,000; 2510,000; 9449,000;103,01196
1358,29; 9440,000; 2356,000; 9196,000;103,56725
1362,46; 9606,000; 2743,000; 9351,000;103,85896
1366,61; 9441,000; 2731,000; 9181,000;104,03101
1370,76; 8986,000; 2399,000; 8708,000;104,40640
1374,91; 9305,000; 2995,000; 9036,000;104,45291
1379,05; 8492,000; 2366,000; 8178,000;105,40262
1383,18; 9281,000; 3283,000; 9009,000;104,75026
1387,32; 8414,000; 2319,000; 8098,000;105,46807
1391,44; 8407,000; 2327,000; 8096,000;105,39088
1395,56; 9242,000; 3137,000; 8942,000;105,16796
1399,68; 8364,000; 2135,000; 8073,000;104,90064
1403,79; 8624,000; 2329,000; 8366,000;104,27365
1407,90; 8537,000; 2263,000; 8269,000;104,46220
1412,00; 8687,000; 2365,000; 8420,000;104,40958
1416,10; 9009,000; 2718,000; 8761,000;104,10392
1420,19; 8696,000; 2409,000; 8400,000;104,94074
1424,27; 8888,000; 2632,000; 8589,000;105,01931
1428,36; 8922,000; 2719,000; 8620,000;105,11778
1432,43; 9007,000; 2846,000; 8708,000;105,10065
1436,50; 8644,000; 2533,000; 8354,000;104,98196
1440,57; 8810,000; 2732,000; 8530,000;104,82925
1444,63; 8412,000; 2366,000; 8116,000;105,14783
1448,69; 8169,000; 2161,000; 7844,000;105,71881
1452,74; 8425,000; 2447,000; 8116,000;105,45070
1456,79; 8168,000; 2238,000; 7867,000;105,34731
1460,83; 8261,000; 2400,000; 7935,000;105,88979
1464,87; 8484,000; 2691,000; 8180,000;105,53835
1468,90; 8466,000; 2650,000; 8132,000;106,09267
1472,93; 8324,000; 2603,000; 7978,000;106,43721
1476,95; 8316,000; 2611,000; 7981,000;106,23836
1480,96; 7988,000; 2298,000; 7601,000;107,29776
1484,98; 8180,000; 2481,000; 7828,000;106,58313
1488,98; 8193,000; 2611,000; 7844,000;106,66921
1492,98; 8240,000; 2725,000; 7881,000;106,96276
1496,98; 7828,000; 2361,000; 7476,000;106,88172
1500,97; 8208,000; 2789,000; 7826,000;107,58388
1504,96; 7570,000; 2172,000; 7164,000;108,13301
1508,94; 8142,000; 2773,000; 7774,000;107,35853
1512,92; 7720,000; 2382,000; 7342,000;107,62097
1516,89; 7820,000; 2502,000; 7430,000;107,91396
1520,85; 7676,000; 2384,000; 7295,000;107,75809
1524,81; 8195,000; 2962,000; 7824,000;107,63060
1528,77; 7579,000; 2324,000; 7205,000;107,66236
1532,72; 7616,000; 2407,000; 7255,000;107,44637
1536,67; 8034,000; 2883,000; 7677,000;107,44681
1540,61; 7396,000; 2376,000; 7009,000;108,35312
1544,54; 7755,000; 2727,000; 7388,000;107,87385
1548,47; 7135,000; 2158,000; 6748,000;108,43137
1552,40; 7550,000; 2615,000; 7147,000;108,89232
1556,32; 7501,000; 2575,000; 7088,000;109,15134
1560,23; 7266,000; 2484,000; 6850,000;109,52817
1564,15; 7359,000; 2555,000; 6922,000;110,00687
1568,05; 7145,000; 2399,000; 6734,000;109,48097
1571,95; 7403,000; 2725,000; 6961,000;110,43437
1575,84; 6990,000; 2347,000; 6574,000;109,84150
1579,73; 7211,000; 2624,000; 6795,000;109,97363
1583,62; 7095,000; 2543,000; 6679,000;110,05803
1587,50; 6790,000; 2249,000; 6365,000;110,32556
1591,37; 7333,000; 2806,000; 6870,000;111,39272
1595,24; 6937,000; 2531,000; 6521,000;110,42607
1599,11; 6639,000; 2244,000; 6219,000;110,56604
1602,96; 6689,000; 2333,000; 6225,000;111,92189
1606,82; 6513,000; 2230,000; 6074,000;111,42040
1610,67; 6720,000; 2503,000; 6261,000;112,21394
1614,51; 6848,000; 2689,000; 6400,000;112,07222
1618,35; 6383,000; 2276,000; 5907,000;113,10934
1622,18; 6530,000; 2494,000; 6062,000;113,11659
1626,01; 6476,000; 2495,000; 6059,000;111,70034
1629,83; 6508,000; 2571,000; 6064,000;112,71114
1633,65; 6586,000; 2670,000; 6118,000;113,57309
1637,46; 6241,000; 2400,000; 5785,000;113,47120
1641,27; 6177,000; 2327,000; 5711,000;113,77069
1645,07; 6118,000; 2289,000; 5633,000;114,50359
1648,86; 6066,000; 2319,000; 5590,000;114,55212
1652,66; 6035,000; 2259,000; 5557,000;114,49363
1656,44; 6070,000; 2366,000; 5600,000;114,53309
1660,22; 6194,000; 2535,000; 5719,000;114,91834
1664,00; 6329,000; 2684,000; 5850,000;115,12950
1667,77; 6051,000; 2449,000; 5553,000;116,04381
1671,53; 5931,000; 2433,000; 5436,000;116,48352
1675,29; 5813,000; 2285,000; 5318,000;116,32047
1679,05; 6053,000; 2563,000; 5561,000;116,41094
1682,80; 5886,000; 2442,000; 5389,000;116,86461
1686,54; 6091,000; 2708,000; 5604,000;116,81630
1690,28; 6027,000; 2658,000; 5556,000;116,25259
1694,01; 5588,000; 2248,000; 5057,000;118,90352
1697,74; 5674,000; 2391,000; 5182,000;117,62809
1701,46; 5841,000; 2601,000; 5350,000;117,86104
1705,18; 5513,000; 2310,000; 4996,000;119,24795
1708,89; 5395,000; 2233,000; 4884,000;119,27575
1712,60; 5756,000; 2612,000; 5224,000;120,36753
1716,30; 5715,000; 2623,000; 5179,000;120,97027
1720,00; 5730,000; 2660,000; 5201,000;120,81858
1723,69; 5622,000; 2563,000; 5072,000;121,92108
1727,38; 5231,000; 2204,000; 4712,000;120,69378
1731,06; 5508,000; 2496,000; 4968,000;121,84466
1734,73; 5437,000; 2459,000; 4917,000;121,15541
1738,40; 5279,000; 2292,000; 4734,000;122,31777
1742,07; 5623,000; 2663,000; 5138,000;119,59596
1745,73; 5297,000; 2312,000; 4760,000;121,93627
1749,38; 5526,000; 2592,000; 5014,000;121,13955
1753,03; 5566,000; 2685,000; 5008,000;124,02066
1756,67; 5307,000; 2466,000; 4783,000;122,61545
1760,31; 5405,000; 2637,000; 4863,000;124,34861
1763,94; 5302,000; 2564,000; 4778,000;123,66757
1767,57; 5249,000; 2562,000; 4713,000;124,91864
1771,19; 5093,000; 2442,000; 4522,000;127,45192
1774,81; 5201,000; 2565,000; 4651,000;126,36625
1778,42; 5158,000; 2584,000; 4617,000;126,61092
1782,03; 4977,000; 2412,000; 4445,000;126,16822
1785,63; 4874,000; 2341,000; 4330,000;127,35043
1789,22; 4918,000; 2405,000; 4385,000;126,91919
1792,81; 4742,000; 2278,000; 4185,000;129,20818
1796,40; 4633,000; 2182,000; 4076,000;129,40866
1799,98; 5134,000; 2714,000; 4598,000;128,45011
1803,55; 4881,000; 2460,000; 4327,000;129,67327
1807,12; 4703,000; 2348,000; 4172,000;129,11184
1810,68; 5341,000; 2987,000; 4794,000;130,27117
1814,24; 4580,000; 2255,000; 4030,000;130,98592
1817,79; 5095,000; 2759,000; 4513,000;133,18130
1821,34; 5216,000; 2932,000; 4641,000;133,64541
1824,88; 4591,000; 2324,000; 4030,000;132,88394
1828,41; 4830,000; 2587,000; 4283,000;132,25236
1831,94; 4638,000; 2421,000; 4081,000;133,55422
1835,47; 4433,000; 2217,000; 3864,000;134,54766
1838,99; 4792,000; 2598,000; 4226,000;134,76658
1842,50; 4611,000; 2418,000; 4025,000;136,46546
1846,01; 4457,000; 2307,000; 3885,000;136,24842
1849,51; 4287,000; 2156,000; 3694,000;138,55657
1853,01; 4348,000; 2262,000; 3774,000;137,96296
1856,50; 5120,000; 3049,000; 4559,000;137,15232
1859,99; 4227,000; 2201,000; 3668,000;138,10498
1863,47; 4544,000; 2547,000; 3994,000;138,00968
1866,94; 4275,000; 2314,000; 3711,000;140,37223
1870,41; 4652,000; 2737,000; 4119,000;138,56729
1873,88; 4472,000; 2520,000; 3897,000;141,75744
1877,34; 4743,000; 2792,000; 4172,000;141,37681
1880,79; 4624,000; 2713,000; 4037,000;144,33535
1884,24; 4573,000; 2665,000; 3995,000;143,45865
1887,68; 4192,000; 2302,000; 3591,000;146,62529
1891,12; 4070,000; 2172,000; 3462,000;147,13178
1894,55; 4167,000; 2296,000; 3582,000;145,48989
1897,98; 4446,000; 2564,000; 3828,000;148,89241
1901,40; 4196,000; 2344,000; 3603,000;147,10087

